timestamp_us,qw,qi,qj,qk,ax,ay,az
730540061,0.99957275390625,0.01904296875,-0.0125732421875,0.01922607421875,0.125,0.1171875,0.109375
730545061,0.99957275390625,0.01922607421875,-0.0125732421875,0.0191650390625,0.125,0.1171875,0.109375
730551061,0.99957275390625,0.0194091796875,-0.0126953125,0.0191650390625,-0.14453125,0.0234375,-0.00390625
730559061,0.99951171875,0.019775390625,-0.0128173828125,0.01910400390625,0.046875,-0.0546875,0.03515625
730566061,0.99951171875,0.01995849609375,-0.012939453125,0.01904296875,-0.03515625,-0.0625,-0.00390625
730570061,0.99951171875,0.0201416015625,-0.01300048828125,0.01898193359375,-0.03515625,-0.0625,-0.00390625
730577061,0.99951171875,0.02020263671875,-0.01300048828125,0.01898193359375,0.0390625,-0.0703125,-0.08203125
730581061,0.99951171875,0.02020263671875,-0.0130615234375,0.01898193359375,0.0390625,-0.0703125,-0.08203125
730584061,0.99951171875,0.02020263671875,-0.0130615234375,0.01904296875,0.0390625,-0.0703125,-0.08203125
730591061,0.99951171875,0.0201416015625,-0.0130615234375,0.01904296875,0.15625,-0.0703125,0.03515625
730599061,0.99951171875,0.02008056640625,-0.0130615234375,0.01904296875,0.078125,-0.14453125,0.03515625
730602061,0.99951171875,0.01995849609375,-0.0130615234375,0.01904296875,0.078125,-0.14453125,0.03515625
730605061,0.99951171875,0.01983642578125,-0.01312255859375,0.01910400390625,0.078125,-0.14453125,0.03515625
730612061,0.99951171875,0.019775390625,-0.01318359375,0.01910400390625,0.0703125,-0.17578125,0.109375
730616061,0.99951171875,0.0196533203125,-0.01324462890625,0.01904296875,0.0703125,-0.17578125,0.109375
730620061,0.99951171875,0.01959228515625,-0.0133056640625,0.01904296875,0.0703125,-0.17578125,0.109375
730624061,0.99951171875,0.01947021484375,-0.013427734375,0.01898193359375,0.0703125,-0.17578125,0.109375
730631061,0.99951171875,0.0194091796875,-0.01348876953125,0.01898193359375,0.03125,-0.0546875,-0.12109375
730640061,0.99957275390625,0.0191650390625,-0.01361083984375,0.01898193359375,-0.00390625,0.0234375,-0.1953125
730644061,0.99957275390625,0.01904296875,-0.01361083984375,0.01898193359375,-0.00390625,0.0234375,-0.1953125
730651061,0.99957275390625,0.0189208984375,-0.01361083984375,0.01904296875,-0.203125,-0.08203125,-0.34765625
730659061,0.99957275390625,0.01873779296875,-0.013427734375,0.01910400390625,-0.234375,-0.08203125,-0.34765625
730666061,0.99957275390625,0.0186767578125,-0.01336669921875,0.0191650390625,-0.12109375,0.0,-0.3125
730670061,0.99957275390625,0.0186767578125,-0.01312255859375,0.0191650390625,-0.12109375,0.0,-0.3125
730677061,0.99957275390625,0.01861572265625,-0.01300048828125,0.0191650390625,0.03125,-0.0390625,-0.1953125
730681061,0.99957275390625,0.01861572265625,-0.01275634765625,0.0191650390625,0.03125,-0.0390625,-0.1953125
730689061,0.99957275390625,0.01861572265625,-0.012451171875,0.0191650390625,-0.06640625,-0.11328125,-0.12109375
730692061,0.99957275390625,0.0185546875,-0.01226806640625,0.0191650390625,-0.06640625,-0.11328125,-0.12109375
730695061,0.99957275390625,0.0185546875,-0.0120849609375,0.01910400390625,-0.06640625,-0.11328125,-0.12109375
730699061,0.99957275390625,0.0185546875,-0.011962890625,0.01910400390625,-0.06640625,-0.11328125,-0.12109375
730706061,0.99957275390625,0.0185546875,-0.01190185546875,0.01904296875,-0.05078125,-0.19140625,-0.04296875
730713061,0.99957275390625,0.01861572265625,-0.0118408203125,0.0189208984375,-0.08984375,-0.11328125,-0.12109375
730716061,0.99957275390625,0.0186767578125,-0.01177978515625,0.01885986328125,-0.08984375,-0.11328125,-0.12109375
730720061,0.99957275390625,0.01873779296875,-0.01177978515625,0.01873779296875,-0.08984375,-0.11328125,-0.12109375
730727061,0.99957275390625,0.018798828125,-0.01171875,0.0186767578125,0.02734375,-0.046875,-0.1953125
730731061,0.99957275390625,0.0189208984375,-0.01165771484375,0.01861572265625,0.02734375,-0.046875,-0.1953125
730735061,0.99957275390625,0.01904296875,-0.01153564453125,0.01861572265625,0.02734375,-0.046875,-0.1953125
730740061,0.99957275390625,0.01910400390625,-0.01141357421875,0.0185546875,-0.00390625,-0.12109375,-0.15625
730749061,0.99957275390625,0.0191650390625,-0.01123046875,0.0185546875,-0.15625,-0.20703125,-0.15625
730752061,0.99957275390625,0.019287109375,-0.010986328125,0.0185546875,-0.15625,-0.20703125,-0.15625
730755061,0.99957275390625,0.019287109375,-0.0107421875,0.01861572265625,-0.15625,-0.20703125,-0.15625
730759061,0.99957275390625,0.01934814453125,-0.01055908203125,0.01861572265625,-0.15625,-0.20703125,-0.15625
730765061,0.99957275390625,0.01934814453125,-0.01025390625,0.0185546875,-0.06640625,-0.3984375,-0.1953125
730772061,0.99957275390625,0.0194091796875,-0.00994873046875,0.01849365234375,0.01953125,-0.359375,-0.08203125
730776061,0.99957275390625,0.01947021484375,-0.00958251953125,0.01837158203125,0.01953125,-0.359375,-0.08203125
730784061,0.99957275390625,0.01947021484375,-0.0091552734375,0.0181884765625,0.03515625,-0.24609375,0.1484375
730787061,0.9996337890625,0.01947021484375,-0.0087890625,0.01800537109375,0.03515625,-0.24609375,0.1484375
730790061,0.9996337890625,0.01953125,-0.00848388671875,0.01788330078125,0.03515625,-0.24609375,0.1484375
730796061,0.9996337890625,0.01959228515625,-0.0081787109375,0.01776123046875,-0.01953125,-0.16796875,0.30078125
730800061,0.9996337890625,0.01971435546875,-0.00799560546875,0.017578125,-0.01953125,-0.16796875,0.30078125
730808061,0.9996337890625,0.01983642578125,-0.0079345703125,0.0174560546875,0.06640625,-0.09765625,0.30078125
730811061,0.9996337890625,0.02001953125,-0.0079345703125,0.01727294921875,0.06640625,-0.09765625,0.30078125
730814061,0.9996337890625,0.02032470703125,-0.00799560546875,0.01708984375,0.06640625,-0.09765625,0.30078125
730821061,0.9996337890625,0.02044677734375,-0.008056640625,0.0169677734375,0.01953125,-0.0390625,0.07421875
730825061,0.9996337890625,0.020751953125,-0.00811767578125,0.0167236328125,0.01953125,-0.0390625,0.07421875
730832061,0.9996337890625,0.0208740234375,-0.00823974609375,0.0166015625,0.01953125,-0.11328125,-0.04296875
730836061,0.9996337890625,0.02105712890625,-0.00823974609375,0.01641845703125,0.01953125,-0.11328125,-0.04296875
730843061,0.9996337890625,0.02117919921875,-0.00830078125,0.0162353515625,-0.01953125,-0.0859375,-0.1953125
730846061,0.9996337890625,0.021240234375,-0.00823974609375,0.01611328125,-0.01953125,-0.0859375,-0.1953125
730850061,0.9996337890625,0.02130126953125,-0.0081787109375,0.015869140625,-0.01953125,-0.0859375,-0.1953125
730856061,0.9996337890625,0.0213623046875,-0.00811767578125,0.0157470703125,0.01953125,0.0234375,-0.15625
730860061,0.9996337890625,0.02142333984375,-0.0079345703125,0.0155029296875,0.01953125,0.0234375,-0.15625
730867061,0.9996337890625,0.02142333984375,-0.0078125,0.015380859375,-0.0859375,-0.015625,-0.1953125
730871061,0.9996337890625,0.02142333984375,-0.007568359375,0.0152587890625,-0.0859375,-0.015625,-0.1953125
730874061,0.9996337890625,0.02142333984375,-0.00732421875,0.01507568359375,-0.0859375,-0.015625,-0.1953125
730881061,0.9996337890625,0.021484375,-0.007080078125,0.01495361328125,0.07421875,-0.0546875,0.03515625
730886061,0.9996337890625,0.02154541015625,-0.00677490234375,0.01470947265625,0.07421875,-0.0546875,0.03515625
730893061,0.9996337890625,0.0216064453125,-0.00653076171875,0.0145263671875,0.12890625,-0.0234375,0.2265625
730896061,0.9996337890625,0.02178955078125,-0.00640869140625,0.01434326171875,0.12890625,-0.0234375,0.2265625
730900061,0.9996337890625,0.02203369140625,-0.00628662109375,0.01409912109375,0.12890625,-0.0234375,0.2265625
730907061,0.9996337890625,0.022216796875,-0.00628662109375,0.013916015625,0.171875,-0.0703125,0.265625
730911061,0.9996337890625,0.0225830078125,-0.00634765625,0.013671875,0.171875,-0.0703125,0.265625
730919061,0.9996337890625,0.02325439453125,-0.006591796875,0.01318359375,0.01953125,-0.15234375,0.1484375
730927061,0.9996337890625,0.02362060546875,-0.0068359375,0.012939453125,-0.1015625,-0.3984375,-0.1953125
730931061,0.9996337890625,0.02398681640625,-0.007080078125,0.01263427734375,-0.1015625,-0.3984375,-0.1953125
730939061,0.99957275390625,0.0245361328125,-0.00738525390625,0.01202392578125,0.00390625,-0.59765625,-0.46484375
730947061,0.99957275390625,0.02459716796875,-0.00732421875,0.01165771484375,-0.00390625,-0.65234375,-0.49609375
730950061,0.9996337890625,0.02459716796875,-0.0072021484375,0.0113525390625,-0.00390625,-0.65234375,-0.49609375
730953061,0.9996337890625,0.02447509765625,-0.0069580078125,0.01104736328125,-0.00390625,-0.65234375,-0.49609375
730960061,0.9996337890625,0.02423095703125,-0.006591796875,0.0107421875,0.04296875,-0.765625,-0.49609375
730968061,0.9996337890625,0.02386474609375,-0.0062255859375,0.01043701171875,0.25,-1.10546875,-0.3125
730971061,0.9996337890625,0.0234375,-0.00579833984375,0.0101318359375,0.25,-1.10546875,-0.3125
730975061,0.99969482421875,0.02288818359375,-0.00543212890625,0.00982666015625,0.25,-1.10546875,-0.3125
730979061,0.99969482421875,0.022216796875,-0.0050048828125,0.00946044921875,0.25,-1.10546875,-0.3125
730986061,0.99969482421875,0.021484375,-0.00469970703125,0.009033203125,0.38671875,-1.48046875,0.1875
730990061,0.999755859375,0.0206298828125,-0.0045166015625,0.008544921875,0.38671875,-1.48046875,0.1875
730993061,0.999755859375,0.01971435546875,-0.00433349609375,0.0079345703125,0.38671875,-1.48046875,0.1875
731000061,0.99981689453125,0.0186767578125,-0.0042724609375,0.00732421875,0.3671875,-1.43359375,0.30078125
731008061,0.99981689453125,0.01751708984375,-0.00433349609375,0.00665283203125,0.09765625,-1.27734375,-0.00390625
731011061,0.99981689453125,0.01629638671875,-0.00439453125,0.00592041015625,0.09765625,-1.27734375,-0.00390625
731015061,0.9998779296875,0.0150146484375,-0.0045166015625,0.00518798828125,0.09765625,-1.27734375,-0.00390625
731019061,0.9998779296875,0.0135498046875,-0.00457763671875,0.00445556640625,0.09765625,-1.27734375,-0.00390625
731026061,0.99993896484375,0.01214599609375,-0.00457763671875,0.003662109375,0.01953125,-0.81640625,-0.2421875
731030061,0.99993896484375,0.01068115234375,-0.00457763671875,0.0028076171875,0.01953125,-0.81640625,-0.2421875
731037061,0.99993896484375,0.00921630859375,-0.00445556640625,0.00189208984375,-0.09375,-0.33984375,-0.203125
731040061,0.99993896484375,0.00787353515625,-0.00433349609375,0.00103759765625,-0.09375,-0.33984375,-0.203125
731045061,1.0,0.00653076171875,-0.00421142578125,0.00018310546875,-0.09375,-0.33984375,-0.203125
731050061,1.0,0.00543212890625,-0.00408935546875,-0.0006103515625,-0.046875,0.3828125,-0.08984375
731054061,1.0,0.00457763671875,-0.00396728515625,-0.00146484375,-0.046875,0.3828125,-0.08984375
731061061,1.0,0.0040283203125,-0.00384521484375,-0.00213623046875,0.02734375,0.7421875,0.1015625
731065061,1.0,0.00372314453125,-0.00372314453125,-0.0029296875,0.02734375,0.7421875,0.1015625
731068061,1.0,0.00384521484375,-0.00360107421875,-0.003662109375,0.02734375,0.7421875,0.1015625
731075061,1.0,0.00421142578125,-0.0035400390625,-0.00433349609375,0.0078125,0.98828125,0.140625
731079061,0.99993896484375,0.00494384765625,-0.00347900390625,-0.00506591796875,0.0078125,0.98828125,0.140625
731086061,0.99993896484375,0.005859375,-0.00341796875,-0.00579833984375,-0.0703125,1.61328125,0.1796875
731090061,0.99993896484375,0.007080078125,-0.00341796875,-0.006591796875,-0.0703125,1.61328125,0.1796875
731098061,0.99993896484375,0.009765625,-0.0035400390625,-0.0081787109375,-0.0703125,2.83984375,0.1796875
731105061,0.9998779296875,0.01123046875,-0.003662109375,-0.0089111328125,-0.18359375,3.3203125,0.1796875
731109061,0.9998779296875,0.0128173828125,-0.00396728515625,-0.00958251953125,-0.18359375,3.3203125,0.1796875
731116061,0.99981689453125,0.01409912109375,-0.0042724609375,-0.010009765625,-0.76953125,5.7109375,-0.3203125
731120061,0.99981689453125,0.015380859375,-0.004638671875,-0.01025390625,-0.76953125,5.7109375,-0.3203125
731124061,0.99981689453125,0.01654052734375,-0.00506591796875,-0.01019287109375,-0.76953125,5.7109375,-0.3203125
731130061,0.999755859375,0.0174560546875,-0.00543212890625,-0.0098876953125,-1.01953125,6.71484375,-0.42578125
731138061,0.999755859375,0.01922607421875,-0.0059814453125,-0.00811767578125,-1.06640625,7.80078125,-0.34765625
731146061,0.999755859375,0.02020263671875,-0.00616455078125,-0.00677490234375,-1.19140625,8.07421875,-0.2734375
731150061,0.999755859375,0.0213623046875,-0.00628662109375,-0.00494384765625,-1.19140625,8.07421875,-0.2734375
731158061,0.99969482421875,0.0240478515625,-0.00634765625,-0.0008544921875,-1.234375,7.9140625,-0.04296875
731166061,0.9996337890625,0.02581787109375,-0.00634765625,0.00164794921875,-1.234375,7.4375,-0.03515625
731173061,0.99957275390625,0.02777099609375,-0.00628662109375,0.00433349609375,-1.0078125,6.87109375,-0.03515625
731176061,0.99951171875,0.030029296875,-0.00616455078125,0.0072021484375,-1.0078125,6.87109375,-0.03515625
731180061,0.9993896484375,0.03240966796875,-0.0059814453125,0.010009765625,-1.0078125,6.87109375,-0.03515625
731184061,0.999267578125,0.03515625,-0.00579833984375,0.0130615234375,-1.0078125,6.87109375,-0.03515625
731190061,0.9991455078125,0.0377197265625,-0.00555419921875,0.015869140625,-0.890625,5.73828125,-0.2109375
731194061,0.99896240234375,0.040771484375,-0.0052490234375,0.019287109375,-0.890625,5.73828125,-0.2109375
731201061,0.998779296875,0.04345703125,-0.00494384765625,0.02239990234375,-0.80859375,5.03515625,-0.39453125
731205061,0.99853515625,0.04656982421875,-0.00457763671875,0.02618408203125,-0.80859375,5.03515625,-0.39453125
731212061,0.998291015625,0.0494384765625,-0.004150390625,0.02996826171875,-0.80078125,4.02734375,-0.38671875
731215061,0.99810791015625,0.0518798828125,-0.00372314453125,0.03350830078125,-0.80078125,4.02734375,-0.38671875
731219061,0.997802734375,0.05462646484375,-0.00311279296875,0.03790283203125,-0.80078125,4.02734375,-0.38671875
731224061,0.99749755859375,0.0567626953125,-0.0025634765625,0.04168701171875,-0.80078125,4.02734375,-0.38671875
731233061,0.9971923828125,0.05908203125,-0.0018310546875,0.046142578125,-0.859375,3.01953125,-0.2109375
731236061,0.99688720703125,0.06085205078125,-0.00128173828125,0.05010986328125,-0.859375,3.01953125,-0.2109375
731240061,0.99652099609375,0.062744140625,-0.00054931640625,0.0548095703125,-0.859375,3.01953125,-0.2109375
731244061,0.99615478515625,0.06439208984375,0.0,0.0594482421875,-0.859375,3.01953125,-0.2109375
731255061,0.99578857421875,0.065673828125,0.00048828125,0.0635986328125,-1.10546875,1.171875,0.41796875
731259061,0.9949951171875,0.0679931640625,0.001220703125,0.07318115234375,-1.10546875,1.171875,0.41796875
731263061,0.99462890625,0.06884765625,0.00140380859375,0.077392578125,-1.10546875,1.171875,0.41796875
731272061,0.994140625,0.0697021484375,0.0015869140625,0.08245849609375,-1.265625,0.234375,0.359375
731275061,0.9937744140625,0.0701904296875,0.00177001953125,0.08648681640625,-1.265625,0.234375,0.359375
731279061,0.9932861328125,0.07073974609375,0.001953125,0.0916748046875,-1.265625,0.234375,0.359375
731285061,0.99285888671875,0.0711669921875,0.00213623046875,0.09564208984375,-0.9296875,-0.90234375,0.55859375
731289061,0.99237060546875,0.0716552734375,0.00238037109375,0.1005859375,-0.9296875,-0.90234375,0.55859375
731296061,0.99188232421875,0.07208251953125,0.0025634765625,0.1044921875,-0.78515625,-1.4453125,0.78515625
731300061,0.9913330078125,0.07269287109375,0.0028076171875,0.10931396484375,-0.78515625,-1.4453125,0.78515625
731308061,0.99078369140625,0.07342529296875,0.0030517578125,0.11383056640625,-0.5625,-2.234375,0.9765625
731311061,0.99029541015625,0.0740966796875,0.00323486328125,0.11767578125,-0.5625,-2.234375,0.9765625
731315061,0.9896240234375,0.0750732421875,0.00347900390625,0.12237548828125,-0.5625,-2.234375,0.9765625
731319061,0.989013671875,0.07611083984375,0.003662109375,0.126708984375,-0.5625,-2.234375,0.9765625
731325061,0.98846435546875,0.0771484375,0.00384521484375,0.13031005859375,-0.5078125,-3.33203125,1.0703125
731329061,0.98773193359375,0.07861328125,0.00396728515625,0.134765625,-0.5078125,-3.33203125,1.0703125
731336061,0.9871826171875,0.07989501953125,0.00408935546875,0.13812255859375,-0.515625,-4.3203125,1.0390625
731340061,0.98651123046875,0.0814208984375,0.00421142578125,0.14215087890625,-0.515625,-4.3203125,1.0390625
731348061,0.98583984375,0.0828857421875,0.0042724609375,0.145751953125,-0.453125,-5.25,0.93359375
731351061,0.9853515625,0.083984375,0.0042724609375,0.14849853515625,-0.453125,-5.25,0.93359375
731354061,0.98468017578125,0.08526611328125,0.0042724609375,0.1519775390625,-0.453125,-5.25,0.93359375
731358061,0.98419189453125,0.08624267578125,0.0042724609375,0.15478515625,-0.453125,-5.25,0.93359375
731368061,0.98358154296875,0.087158203125,0.0042724609375,0.1578369140625,-0.41796875,-6.4140625,0.640625
731371061,0.983154296875,0.08758544921875,0.00433349609375,0.16021728515625,-0.41796875,-6.4140625,0.640625
731375061,0.98272705078125,0.08782958984375,0.00439453125,0.1629638671875,-0.41796875,-6.4140625,0.640625
731379061,0.9822998046875,0.08770751953125,0.0045166015625,0.165283203125,-0.41796875,-6.4140625,0.640625
731388061,0.9820556640625,0.08734130859375,0.004638671875,0.1669921875,-0.203125,-8.32421875,0.53515625
731391061,0.9818115234375,0.08660888671875,0.0047607421875,0.16876220703125,-0.203125,-8.32421875,0.53515625
731395061,0.981689453125,0.08551025390625,0.0048828125,0.1702880859375,-0.203125,-8.32421875,0.53515625
731399061,0.9815673828125,0.084228515625,0.00494384765625,0.17138671875,-0.203125,-8.32421875,0.53515625
731408061,0.9815673828125,0.08306884765625,0.0048828125,0.17205810546875,0.1875,-9.6328125,0.59765625
731411061,0.98162841796875,0.08148193359375,0.00482177734375,0.17254638671875,0.1875,-9.6328125,0.59765625
731415061,0.98175048828125,0.07965087890625,0.00469970703125,0.1727294921875,0.1875,-9.6328125,0.59765625
731422061,0.98187255859375,0.07794189453125,0.00457763671875,0.17254638671875,0.46484375,-9.27734375,0.50390625
731425061,0.9820556640625,0.0765380859375,0.00457763671875,0.1722412109375,0.46484375,-9.27734375,0.50390625
731432061,0.98236083984375,0.07464599609375,0.00457763671875,0.17138671875,0.39453125,-9.0625,0.57421875
731435061,0.98260498046875,0.07330322265625,0.00469970703125,0.17059326171875,0.39453125,-9.0625,0.57421875
731439061,0.98297119140625,0.07171630859375,0.0048828125,0.169189453125,0.39453125,-9.0625,0.57421875
731446061,0.9832763671875,0.0706787109375,0.0050048828125,0.16790771484375,0.00390625,-8.80859375,0.51953125
731450061,0.98370361328125,0.06939697265625,0.0052490234375,0.16595458984375,0.00390625,-8.80859375,0.51953125
731453061,0.98406982421875,0.0684814453125,0.00543212890625,0.16387939453125,0.00390625,-8.80859375,0.51953125
731460061,0.9844970703125,0.06781005859375,0.005615234375,0.16162109375,-0.0859375,-8.66796875,0.43359375
731467061,0.9849853515625,0.06732177734375,0.00579833984375,0.1590576171875,-0.1171875,-8.578125,0.1953125
731470061,0.9853515625,0.0670166015625,0.00604248046875,0.1566162109375,-0.1171875,-8.578125,0.1953125
731473061,0.9859619140625,0.066650390625,0.00640869140625,0.1529541015625,-0.1171875,-8.578125,0.1953125
731480061,0.98638916015625,0.06646728515625,0.00665283203125,0.15020751953125,-0.15625,-8.125,0.04296875
731487061,0.987060546875,0.06610107421875,0.007080078125,0.14599609375,-0.22265625,-7.6953125,0.00390625
731490061,0.987548828125,0.06573486328125,0.00738525390625,0.14276123046875,-0.22265625,-7.6953125,0.00390625
731493061,0.98828125,0.0650634765625,0.00787353515625,0.13800048828125,-0.22265625,-7.6953125,0.00390625
731500061,0.98876953125,0.06451416015625,0.0081787109375,0.13458251953125,-0.4765625,-7.03515625,-0.00390625
731504061,0.989501953125,0.0634765625,0.008544921875,0.12939453125,-0.4765625,-7.03515625,-0.00390625
731511061,0.99005126953125,0.0626220703125,0.0087890625,0.12554931640625,-0.765625,-6.09375,-0.04296875
731515061,0.9908447265625,0.061279296875,0.0091552734375,0.1201171875,-0.765625,-6.09375,-0.04296875
731522061,0.99151611328125,0.0599365234375,0.00946044921875,0.11505126953125,-0.96484375,-4.97265625,-0.05078125
731525061,0.9920654296875,0.05877685546875,0.009765625,0.1107177734375,-0.96484375,-4.97265625,-0.05078125
731529061,0.99285888671875,0.05712890625,0.01019287109375,0.10443115234375,-0.96484375,-4.97265625,-0.05078125
731535061,0.99334716796875,0.05596923828125,0.010498046875,0.10003662109375,-1.0703125,-4.03515625,-0.05859375
731539061,0.99407958984375,0.05426025390625,0.01104736328125,0.09326171875,-1.0703125,-4.03515625,-0.05859375
731547061,0.99456787109375,0.05316162109375,0.011474609375,0.088623046875,-1.3828125,-2.2109375,0.08984375
731550061,0.9951171875,0.0518798828125,0.01190185546875,0.08294677734375,-1.3828125,-2.2109375,0.08984375
731558061,0.99578857421875,0.05035400390625,0.012451171875,0.07586669921875,-1.58203125,-1.0390625,0.2421875
731561061,0.99615478515625,0.04937744140625,0.01275634765625,0.0711669921875,-1.58203125,-1.0390625,0.2421875
731568061,0.99658203125,0.0482177734375,0.0130615234375,0.06536865234375,-1.65234375,-0.23046875,0.234375
731571061,0.9970703125,0.046875,0.0133056640625,0.05853271484375,-1.65234375,-0.23046875,0.234375
731579061,0.99774169921875,0.04486083984375,0.01348876953125,0.04803466796875,-1.91015625,0.48828125,-0.109375
731587061,0.998046875,0.04376220703125,0.0135498046875,0.04248046875,-1.8203125,0.96484375,-0.234375
731590061,0.998291015625,0.042724609375,0.0135498046875,0.0369873046875,-1.8203125,0.96484375,-0.234375
731600061,0.99871826171875,0.0406494140625,0.013916015625,0.02593994140625,-1.765625,1.47265625,-0.1953125
731604061,0.9989013671875,0.03955078125,0.0142822265625,0.0194091796875,-1.765625,1.47265625,-0.1953125
731613061,0.9990234375,0.038818359375,0.01458740234375,0.01531982421875,-1.671875,2.32421875,-0.05078125
731617061,0.99908447265625,0.03802490234375,0.0150146484375,0.01007080078125,-1.671875,2.32421875,-0.05078125
731620061,0.9991455078125,0.03729248046875,0.0155029296875,0.004638671875,-1.671875,2.32421875,-0.05078125
731629061,0.99920654296875,0.03643798828125,0.01605224609375,-0.00164794921875,-1.328125,4.33203125,0.79296875
731633061,0.9991455078125,0.03570556640625,0.01654052734375,-0.01080322265625,-1.328125,4.33203125,0.79296875
731642061,0.99908447265625,0.0355224609375,0.01654052734375,-0.01568603515625,-1.640625,6.09375,1.21484375
731645061,0.9990234375,0.03558349609375,0.0162353515625,-0.0205078125,-1.640625,6.09375,1.21484375
731648061,0.9989013671875,0.03594970703125,0.01556396484375,-0.02520751953125,-1.640625,6.09375,1.21484375
731654061,0.998779296875,0.0364990234375,0.0146484375,-0.0299072265625,-1.88671875,7.015625,0.90625
731658061,0.99859619140625,0.03729248046875,0.01348876953125,-0.034423828125,-1.88671875,7.015625,0.90625
731665061,0.99847412109375,0.03814697265625,0.0123291015625,-0.0384521484375,-2.421875,8.4140625,-0.28125
731669061,0.998291015625,0.0391845703125,0.01116943359375,-0.04229736328125,-2.421875,8.4140625,-0.28125
731672061,0.99810791015625,0.040283203125,0.010009765625,-0.04595947265625,-2.421875,8.4140625,-0.28125
731679061,0.9979248046875,0.04119873046875,0.009033203125,-0.0491943359375,-2.4765625,8.7890625,-1.0078125
731684061,0.99774169921875,0.042236328125,0.00823974609375,-0.0521240234375,-2.4765625,8.7890625,-1.0078125
731690061,0.99755859375,0.0430908203125,0.00775146484375,-0.0546875,-1.8671875,9.4921875,-1.26953125
731693061,0.99737548828125,0.04400634765625,0.00750732421875,-0.056884765625,-1.8671875,9.4921875,-1.26953125
731702061,0.99725341796875,0.04486083984375,0.0074462890625,-0.0587158203125,-1.8671875,9.859375,-0.84765625
731705061,0.99713134765625,0.0457763671875,0.0074462890625,-0.060302734375,-1.8671875,9.859375,-0.84765625
731708061,0.9969482421875,0.04693603515625,0.00750732421875,-0.06158447265625,-1.8671875,9.859375,-0.84765625
731716061,0.996826171875,0.04803466796875,0.00738525390625,-0.06256103515625,-1.859375,10.15234375,-0.4921875
731719061,0.99676513671875,0.04937744140625,0.00714111328125,-0.06329345703125,-1.859375,10.15234375,-0.4921875
731727061,0.99664306640625,0.05078125,0.00677490234375,-0.06365966796875,-1.484375,10.33984375,-0.953125
731733061,0.99658203125,0.05224609375,0.00634765625,-0.063720703125,-1.484375,10.33984375,-0.953125
731737061,0.99652099609375,0.05364990234375,0.005859375,-0.0634765625,-1.484375,10.33984375,-0.953125
731740061,0.99652099609375,0.05499267578125,0.00537109375,-0.06280517578125,-1.484375,10.33984375,-0.953125
731744061,0.9964599609375,0.05633544921875,0.0050048828125,-0.061767578125,-1.484375,10.33984375,-0.953125
731748061,0.99652099609375,0.05743408203125,0.0047607421875,-0.06036376953125,-1.484375,10.33984375,-0.953125
731759061,0.99664306640625,0.058837890625,0.0047607421875,-0.0567626953125,-1.55078125,8.859375,-2.1640625
731764061,0.99676513671875,0.0592041015625,0.00506591796875,-0.05426025390625,-1.55078125,8.859375,-2.1640625
731769061,0.99688720703125,0.059326171875,0.00543212890625,-0.0516357421875,-1.5078125,8.34375,-2.0859375
731773061,0.9970703125,0.05926513671875,0.0059814453125,-0.048583984375,-1.5078125,8.34375,-2.0859375
731780061,0.9971923828125,0.0589599609375,0.006591796875,-0.045654296875,-1.4609375,7.9609375,-1.78125
731784061,0.99737548828125,0.05865478515625,0.00732421875,-0.04205322265625,-1.4609375,7.9609375,-1.78125
731787061,0.99755859375,0.05828857421875,0.0081787109375,-0.03814697265625,-1.4609375,7.9609375,-1.78125
731794061,0.9976806640625,0.0579833984375,0.00897216796875,-0.03436279296875,-1.50390625,7.78515625,-1.3125
731798061,0.997802734375,0.0577392578125,0.00982666015625,-0.03009033203125,-1.50390625,7.78515625,-1.3125
731805061,0.9979248046875,0.05755615234375,0.0106201171875,-0.02593994140625,-1.46484375,7.2421875,-0.73828125
731808061,0.998046875,0.0574951171875,0.011474609375,-0.021240234375,-1.46484375,7.2421875,-0.73828125
731815061,0.99810791015625,0.0574951171875,0.01226806640625,-0.0166015625,-1.4140625,6.70703125,-0.31640625
731819061,0.9981689453125,0.0576171875,0.01312255859375,-0.01129150390625,-1.4140625,6.70703125,-0.31640625
731823061,0.99822998046875,0.057861328125,0.01397705078125,-0.005859375,-1.4140625,6.70703125,-0.31640625
731829061,0.99822998046875,0.05816650390625,0.01470947265625,-0.0008544921875,-1.41796875,6.14453125,-0.15625
731837061,0.9981689453125,0.05865478515625,0.0155029296875,0.005126953125,-1.48828125,5.09765625,0.2265625
731840061,0.998046875,0.05926513671875,0.01617431640625,0.010498046875,-1.48828125,5.09765625,0.2265625
731843061,0.9979248046875,0.0601806640625,0.01690673828125,0.01678466796875,-1.48828125,5.09765625,0.2265625
731847061,0.99774169921875,0.0611572265625,0.01751708984375,0.0225830078125,-1.48828125,5.09765625,0.2265625
731853061,0.9974365234375,0.0623779296875,0.0181884765625,0.02911376953125,-1.6875,4.09765625,0.43359375
731861061,0.9971923828125,0.0635986328125,0.01873779296875,0.03509521484375,-1.91796875,3.1015625,0.3203125
731864061,0.996826171875,0.06488037109375,0.019287109375,0.0413818359375,-1.91796875,3.1015625,0.3203125
731872061,0.9964599609375,0.0662841796875,0.019775390625,0.04827880859375,-1.94921875,1.8125,0.13671875
731875061,0.99603271484375,0.0673828125,0.02020263671875,0.0543212890625,-1.94921875,1.8125,0.13671875
731879061,0.99554443359375,0.068603515625,0.02069091796875,0.06146240234375,-1.94921875,1.8125,0.13671875
731883061,0.9949951171875,0.06964111328125,0.021240234375,0.068359375,-1.94921875,1.8125,0.13671875
731889061,0.9945068359375,0.07049560546875,0.021728515625,0.0745849609375,-1.6796875,-0.05078125,0.3515625
731896061,0.99383544921875,0.0714111328125,0.0223388671875,0.08203125,-1.6796875,-0.05078125,0.3515625
731899061,0.99322509765625,0.07208251953125,0.02288818359375,0.088134765625,-1.6796875,-0.05078125,0.3515625
731903061,0.99249267578125,0.07275390625,0.0234375,0.095458984375,-1.6796875,-0.05078125,0.3515625
731914061,0.99188232421875,0.07330322265625,0.02386474609375,0.1011962890625,-1.7265625,-2.19140625,0.89453125
731918061,0.9903564453125,0.07427978515625,0.02459716796875,0.11444091796875,-1.7265625,-2.19140625,0.89453125
731922061,0.9896240234375,0.07464599609375,0.02484130859375,0.1201171875,-1.7265625,-2.19140625,0.89453125
731932061,0.98876953125,0.07501220703125,0.02508544921875,0.1265869140625,-1.58203125,-2.8203125,1.0546875
731935061,0.988037109375,0.07525634765625,0.02520751953125,0.132080078125,-1.58203125,-2.8203125,1.0546875
731939061,0.98712158203125,0.07550048828125,0.02532958984375,0.1385498046875,-1.58203125,-2.8203125,1.0546875
731943061,0.98626708984375,0.07562255859375,0.02545166015625,0.14453125,-1.58203125,-2.8203125,1.0546875
731950061,0.98553466796875,0.0758056640625,0.025634765625,0.14959716796875,-1.2265625,-3.82421875,1.140625
731954061,0.98455810546875,0.0760498046875,0.02587890625,0.15570068359375,-1.2265625,-3.82421875,1.140625
731958061,0.98358154296875,0.07635498046875,0.026123046875,0.16131591796875,-1.2265625,-3.82421875,1.140625
731964061,0.9827880859375,0.07672119140625,0.0263671875,0.16595458984375,-1.25,-4.3984375,1.22265625
731968061,0.98175048828125,0.0772705078125,0.026611328125,0.17181396484375,-1.25,-4.3984375,1.22265625
731975061,0.98089599609375,0.077880859375,0.02679443359375,0.1761474609375,-1.07421875,-5.2578125,1.41796875
731979061,0.97991943359375,0.07861328125,0.0269775390625,0.18121337890625,-1.07421875,-5.2578125,1.41796875
731987061,0.97894287109375,0.07952880859375,0.027099609375,0.1859130859375,-1.0078125,-6.20703125,1.0390625
731990061,0.9781494140625,0.08026123046875,0.02716064453125,0.1898193359375,-1.0078125,-6.20703125,1.0390625
731994061,0.9771728515625,0.08111572265625,0.0272216796875,0.19451904296875,-1.0078125,-6.20703125,1.0390625
731998061,0.97625732421875,0.08172607421875,0.02728271484375,0.19866943359375,-1.0078125,-6.20703125,1.0390625
732004061,0.97552490234375,0.0821533203125,0.02734375,0.2020263671875,-0.5546875,-7.82421875,1.046875
732008061,0.97467041015625,0.08245849609375,0.0274658203125,0.20611572265625,-0.5546875,-7.82421875,1.046875
732015061,0.9739990234375,0.08251953125,0.0274658203125,0.2091064453125,-0.41015625,-8.70703125,1.125
732019061,0.9732666015625,0.08233642578125,0.02752685546875,0.2125244140625,-0.41015625,-8.70703125,1.125
732027061,0.97265625,0.08197021484375,0.02752685546875,0.21551513671875,-0.234375,-9.359375,1.1640625
732030061,0.97222900390625,0.08135986328125,0.027587890625,0.2177734375,-0.234375,-9.359375,1.1640625
732033061,0.97174072265625,0.08038330078125,0.02752685546875,0.2203369140625,-0.234375,-9.359375,1.1640625
732037061,0.97137451171875,0.0794677734375,0.0274658203125,0.22210693359375,-0.234375,-9.359375,1.1640625
732047061,0.9710693359375,0.07830810546875,0.02740478515625,0.22406005859375,-0.15625,-9.9921875,1.00390625
732050061,0.9708251953125,0.0772705078125,0.02728271484375,0.22528076171875,-0.15625,-9.9921875,1.00390625
732054061,0.970703125,0.0760498046875,0.0272216796875,0.2264404296875,-0.15625,-9.9921875,1.00390625
732058061,0.97064208984375,0.074951171875,0.02728271484375,0.22705078125,-0.15625,-9.9921875,1.00390625
732067061,0.97064208984375,0.0740966796875,0.02734375,0.227294921875,0.00390625,-10.94140625,0.7890625
732070061,0.970703125,0.07318115234375,0.02752685546875,0.2271728515625,0.00390625,-10.94140625,0.7890625
732074061,0.97088623046875,0.07232666015625,0.02783203125,0.2266845703125,0.00390625,-10.94140625,0.7890625
732078061,0.9710693359375,0.07177734375,0.02825927734375,0.22589111328125,0.00390625,-10.94140625,0.7890625
732087061,0.9713134765625,0.071533203125,0.0286865234375,0.2249755859375,0.1953125,-11.421875,0.3203125
732090061,0.9716796875,0.07135009765625,0.02935791015625,0.223388671875,0.1953125,-11.421875,0.3203125
732094061,0.97210693359375,0.07135009765625,0.0302734375,0.2213134765625,0.1953125,-11.421875,0.3203125
732101061,0.97259521484375,0.07159423828125,0.03118896484375,0.21893310546875,0.04296875,-11.21484375,0.20703125
732104061,0.97308349609375,0.07183837890625,0.031982421875,0.21661376953125,0.04296875,-11.21484375,0.20703125
732111061,0.97381591796875,0.072265625,0.03302001953125,0.213134765625,-0.109375,-10.92578125,0.16796875
732114061,0.974365234375,0.07257080078125,0.0338134765625,0.21014404296875,-0.109375,-10.92578125,0.16796875
732118061,0.97528076171875,0.072998046875,0.03485107421875,0.20562744140625,-0.109375,-10.92578125,0.16796875
732125061,0.9759521484375,0.0732421875,0.0355224609375,0.20208740234375,-0.4609375,-9.859375,0.25
732129061,0.97698974609375,0.07330322265625,0.03631591796875,0.19696044921875,-0.4609375,-9.859375,0.25
732132061,0.97796630859375,0.0731201171875,0.036865234375,0.19207763671875,-0.4609375,-9.859375,0.25
732139061,0.9788818359375,0.0726318359375,0.03717041015625,0.187255859375,-0.93359375,-9.2109375,0.10546875
732146061,0.97998046875,0.07171630859375,0.037353515625,0.18194580078125,-1.5234375,-8.07421875,-0.1328125
732149061,0.98089599609375,0.07061767578125,0.037353515625,0.1773681640625,-1.5234375,-8.07421875,-0.1328125
732152061,0.982177734375,0.06854248046875,0.0372314453125,0.1708984375,-1.5234375,-8.07421875,-0.1328125
732159061,0.98309326171875,0.06689453125,0.037109375,0.16632080078125,-2.09765625,-6.44140625,-0.4921875
732163061,0.98443603515625,0.06390380859375,0.03692626953125,0.15936279296875,-2.09765625,-6.44140625,-0.4921875
732170061,0.9853515625,0.06170654296875,0.03692626953125,0.1546630859375,-2.234375,-4.80859375,-0.453125
732174061,0.986572265625,0.058349609375,0.037109375,0.14794921875,-2.234375,-4.80859375,-0.453125
732182061,0.9876708984375,0.05535888671875,0.0374755859375,0.1417236328125,-2.38671875,-3.2734375,-0.046875
732185061,0.988525390625,0.052978515625,0.0379638671875,0.136474609375,-2.38671875,-3.2734375,-0.046875
732188061,0.98944091796875,0.05035400390625,0.03875732421875,0.13018798828125,-2.38671875,-3.2734375,-0.046875
732194061,0.9903564453125,0.048095703125,0.0396728515625,0.123779296875,-2.43359375,-1.92578125,0.43359375
732198061,0.99139404296875,0.0457763671875,0.04083251953125,0.11578369140625,-2.43359375,-1.92578125,0.43359375
732205061,0.99200439453125,0.0445556640625,0.04168701171875,0.1103515625,-2.20703125,-0.76953125,1.0859375
732209061,0.99273681640625,0.04364013671875,0.04266357421875,0.10357666015625,-2.20703125,-0.76953125,1.0859375
732217061,0.99407958984375,0.04290771484375,0.0445556640625,0.0894775390625,-2.046875,-0.24609375,1.27734375
732224061,0.99462890625,0.04302978515625,0.04534912109375,0.08245849609375,-2.22265625,0.2734375,1.19921875
732228061,0.9952392578125,0.04345703125,0.04608154296875,0.07391357421875,-2.22265625,0.2734375,1.19921875
732232061,0.99560546875,0.043701171875,0.04644775390625,0.0684814453125,-2.22265625,0.2734375,1.19921875
732240061,0.99609375,0.0440673828125,0.046875,0.06011962890625,-2.16796875,0.7890625,1.1328125
732244061,0.9964599609375,0.0443115234375,0.047119140625,0.05328369140625,-2.16796875,0.7890625,1.1328125
732248061,0.996826171875,0.04443359375,0.04730224609375,0.0462646484375,-2.16796875,0.7890625,1.1328125
732252061,0.9970703125,0.04443359375,0.04736328125,0.0408935546875,-2.16796875,0.7890625,1.1328125
732258061,0.997314453125,0.04412841796875,0.04730224609375,0.03436279296875,-2.16796875,2.8203125,1.0859375
732265061,0.99755859375,0.043701171875,0.047119140625,0.02801513671875,-2.16796875,2.8203125,1.0859375
732268061,0.99774169921875,0.04302978515625,0.04681396484375,0.0206298828125,-2.16796875,2.8203125,1.0859375
732272061,0.9979248046875,0.0423583984375,0.04644775390625,0.0155029296875,-2.16796875,2.8203125,1.0859375
732282061,0.998046875,0.04150390625,0.0458984375,0.0096435546875,-2.08984375,4.68359375,1.30859375
732286061,0.9981689453125,0.04058837890625,0.0452880859375,0.00390625,-2.08984375,4.68359375,1.30859375
732289061,0.99822998046875,0.03961181640625,0.0445556640625,-0.001708984375,-2.08984375,4.68359375,1.30859375
732293061,0.998291015625,0.03863525390625,0.04364013671875,-0.0074462890625,-2.08984375,4.68359375,1.30859375
732297061,0.998291015625,0.0377197265625,0.04266357421875,-0.01287841796875,-2.08984375,4.68359375,1.30859375
732304061,0.998291015625,0.0367431640625,0.04144287109375,-0.0181884765625,-2.53515625,6.078125,0.41015625
732308061,0.998291015625,0.0357666015625,0.0401611328125,-0.0233154296875,-2.53515625,6.078125,0.41015625
732311061,0.99822998046875,0.03485107421875,0.038818359375,-0.0284423828125,-2.53515625,6.078125,0.41015625
732318061,0.9981689453125,0.0338134765625,0.0374755859375,-0.033203125,-2.4140625,6.5703125,-0.01953125
732326061,0.99810791015625,0.03277587890625,0.0362548828125,-0.03790283203125,-2.1171875,6.84765625,-0.8984375
732329061,0.99798583984375,0.03173828125,0.03521728515625,-0.04217529296875,-2.1171875,6.84765625,-0.8984375
732333061,0.99786376953125,0.0306396484375,0.03436279296875,-0.04620361328125,-2.1171875,6.84765625,-0.8984375
732337061,0.99774169921875,0.02947998046875,0.03369140625,-0.05010986328125,-2.1171875,6.84765625,-0.8984375
732344061,0.99761962890625,0.0283203125,0.03326416015625,-0.053466796875,-1.3984375,6.96484375,-0.83984375
732348061,0.9974365234375,0.0272216796875,0.0330810546875,-0.05694580078125,-1.3984375,6.96484375,-0.83984375
732351061,0.997314453125,0.0263671875,0.0330810546875,-0.06024169921875,-1.3984375,6.96484375,-0.83984375
732360061,0.99713134765625,0.02581787109375,0.03302001953125,-0.063232421875,-1.4453125,7.33203125,-0.30859375
732364061,0.9969482421875,0.025634765625,0.03289794921875,-0.0662841796875,-1.4453125,7.33203125,-0.30859375
732367061,0.9967041015625,0.0257568359375,0.0325927734375,-0.0693359375,-1.4453125,7.33203125,-0.30859375
732374061,0.99652099609375,0.02618408203125,0.0321044921875,-0.07208251953125,-1.26953125,9.0703125,0.08203125
732381061,0.996337890625,0.02691650390625,0.03143310546875,-0.07464599609375,-1.26953125,9.0703125,0.08203125
732384061,0.9962158203125,0.02783203125,0.03057861328125,-0.0767822265625,-1.26953125,9.0703125,0.08203125
732387061,0.99603271484375,0.02899169921875,0.0294189453125,-0.0787353515625,-1.26953125,9.0703125,0.08203125
732393061,0.99591064453125,0.03009033203125,0.02825927734375,-0.0802001953125,-1.453125,10.40234375,-1.19140625
732400061,0.995849609375,0.03143310546875,0.02691650390625,-0.081298828125,-1.453125,10.40234375,-1.19140625
732404061,0.99578857421875,0.0325927734375,0.02581787109375,-0.0819091796875,-1.453125,10.40234375,-1.19140625
732407061,0.9957275390625,0.0338134765625,0.02471923828125,-0.08209228515625,-1.453125,10.40234375,-1.19140625
732414061,0.9957275390625,0.0347900390625,0.02386474609375,-0.0819091796875,-1.4375,10.05859375,-2.41796875
732417061,0.99578857421875,0.03582763671875,0.02325439453125,-0.08123779296875,-1.4375,10.05859375,-2.41796875
732424061,0.995849609375,0.03668212890625,0.02288818359375,-0.08026123046875,-1.34765625,9.62890625,-2.265625
732428061,0.99591064453125,0.0374755859375,0.02288818359375,-0.07891845703125,-1.34765625,9.62890625,-2.265625
732436061,0.99609375,0.038818359375,0.0233154296875,-0.07550048828125,-1.38671875,9.16796875,-1.7578125
732444061,0.99627685546875,0.0394287109375,0.02374267578125,-0.07330322265625,-1.22265625,9.28125,-1.22265625
732448061,0.99639892578125,0.0400390625,0.024169921875,-0.07086181640625,-1.22265625,9.28125,-1.22265625
732456061,0.9967041015625,0.041259765625,0.02484130859375,-0.0654296875,-1.5546875,9.296875,-0.80078125
732464061,0.99688720703125,0.0418701171875,0.0250244140625,-0.0621337890625,-1.73046875,9.2265625,-0.5625
732468061,0.9970703125,0.0426025390625,0.02508544921875,-0.05853271484375,-1.73046875,9.2265625,-0.5625
732476061,0.9974365234375,0.04400634765625,0.02496337890625,-0.05108642578125,-1.9609375,9.1484375,-0.78515625
732483061,0.99761962890625,0.0447998046875,0.02490234375,-0.0467529296875,-2.12109375,8.8046875,-0.8984375
732487061,0.997802734375,0.04559326171875,0.02484130859375,-0.0418701171875,-2.12109375,8.8046875,-0.8984375
732494061,0.9979248046875,0.0462646484375,0.02484130859375,-0.03741455078125,-2.1875,8.06640625,-1.12890625
732498061,0.998046875,0.04705810546875,0.02496337890625,-0.0318603515625,-2.1875,8.06640625,-1.12890625
732502061,0.9981689453125,0.04779052734375,0.0252685546875,-0.026123046875,-2.1875,8.06640625,-1.12890625
732506061,0.998291015625,0.0484619140625,0.025634765625,-0.02081298828125,-2.1875,8.06640625,-1.12890625
732512061,0.99835205078125,0.0491943359375,0.0262451171875,-0.0140380859375,-2.2265625,6.984375,-0.8515625
732519061,0.99835205078125,0.04974365234375,0.02679443359375,-0.00823974609375,-2.45703125,5.66015625,-0.35546875
732523061,0.99835205078125,0.05029296875,0.0274658203125,-0.00146484375,-2.45703125,5.66015625,-0.35546875
732531061,0.998291015625,0.05084228515625,0.02813720703125,0.00567626953125,-2.51953125,4.47265625,0.07421875
732534061,0.9981689453125,0.0513916015625,0.02874755859375,0.01177978515625,-2.51953125,4.47265625,0.07421875
732538061,0.998046875,0.05206298828125,0.02935791015625,0.01922607421875,-2.51953125,4.47265625,0.07421875
732542061,0.997802734375,0.0528564453125,0.02984619140625,0.02655029296875,-2.51953125,4.47265625,0.07421875
732548061,0.99755859375,0.05364990234375,0.03021240234375,0.0330810546875,-2.15625,2.859375,0.5859375
732552061,0.9971923828125,0.05474853515625,0.0306396484375,0.04107666015625,-2.15625,2.859375,0.5859375
732559061,0.996826171875,0.0557861328125,0.0308837890625,0.04766845703125,-2.1953125,1.41796875,0.55078125
732563061,0.996337890625,0.05712890625,0.0311279296875,0.055419921875,-2.1953125,1.41796875,0.55078125
732571061,0.99578857421875,0.0584716796875,0.03131103515625,0.06280517578125,-2.2421875,0.015625,0.328125
732574061,0.99530029296875,0.0596923828125,0.031494140625,0.0694580078125,-2.2421875,0.015625,0.328125
732578061,0.99462890625,0.06109619140625,0.03167724609375,0.07708740234375,-2.2421875,0.015625,0.328125
732582061,0.99395751953125,0.0623779296875,0.03192138671875,0.08441162109375,-2.2421875,0.015625,0.328125
732590061,0.99334716796875,0.0634765625,0.03216552734375,0.09063720703125,-2.15234375,-2.00390625,0.03515625
732593061,0.9925537109375,0.0645751953125,0.0325927734375,0.09783935546875,-2.15234375,-2.00390625,0.03515625
732597061,0.99169921875,0.065673828125,0.03302001953125,0.10546875,-2.15234375,-2.00390625,0.03515625
732603061,0.990966796875,0.06646728515625,0.033447265625,0.1114501953125,-2.12890625,-2.9140625,0.12109375
732612061,0.99005126953125,0.06732177734375,0.03399658203125,0.11883544921875,-2.12890625,-2.9140625,0.12109375
732616061,0.9892578125,0.0679931640625,0.03448486328125,0.1248779296875,-2.12890625,-2.9140625,0.12109375
732619061,0.98834228515625,0.068603515625,0.03497314453125,0.131103515625,-2.12890625,-2.9140625,0.12109375
732623061,0.9874267578125,0.06927490234375,0.03546142578125,0.1378173828125,-2.12890625,-2.9140625,0.12109375
732633061,0.98651123046875,0.0699462890625,0.035888671875,0.14373779296875,-1.71484375,-5.19140625,0.4140625
732637061,0.98480224609375,0.07086181640625,0.03643798828125,0.154296875,-1.71484375,-5.19140625,0.4140625
732641061,0.98406982421875,0.0711669921875,0.0364990234375,0.15863037109375,-1.71484375,-5.19140625,0.4140625
732648061,0.98321533203125,0.07135009765625,0.0364990234375,0.16387939453125,-1.66015625,-5.24609375,0.23046875
732657061,0.9818115234375,0.0709228515625,0.0360107421875,0.17254638671875,-1.44921875,-5.26171875,0.03515625
732661061,0.9810791015625,0.07025146484375,0.03558349609375,0.177001953125,-1.44921875,-5.26171875,0.03515625
732668061,0.98028564453125,0.0693359375,0.034912109375,0.1815185546875,-1.44140625,-5.79296875,-0.421875
732676061,0.97894287109375,0.0670166015625,0.033447265625,0.19000244140625,-1.41796875,-5.921875,-0.4296875
732683061,0.978271484375,0.065673828125,0.03271484375,0.19403076171875,-1.55078125,-6.04296875,-0.63671875
732687061,0.97747802734375,0.0640869140625,0.0318603515625,0.198486328125,-1.55078125,-6.04296875,-0.63671875
732694061,0.97686767578125,0.06298828125,0.03131103515625,0.2017822265625,-1.52734375,-5.93359375,-0.8359375
732698061,0.9761962890625,0.0616455078125,0.03082275390625,0.2056884765625,-1.52734375,-5.93359375,-0.8359375
732706061,0.97552490234375,0.0606689453125,0.03057861328125,0.209228515625,-1.2734375,-6.31640625,-0.60546875
732709061,0.97491455078125,0.05987548828125,0.03057861328125,0.2120361328125,-1.2734375,-6.31640625,-0.60546875
732712061,0.9742431640625,0.0592041015625,0.0308837890625,0.21539306640625,-1.2734375,-6.31640625,-0.60546875
732716061,0.97369384765625,0.05877685546875,0.03125,0.21783447265625,-1.2734375,-6.31640625,-0.60546875
732723061,0.9730224609375,0.05853271484375,0.03204345703125,0.22076416015625,-0.84375,-7.11328125,0.03515625
732730061,0.97247314453125,0.0584716796875,0.0328369140625,0.22314453125,-0.68359375,-8.21484375,0.765625
732733061,0.9720458984375,0.0584716796875,0.0335693359375,0.224853515625,-0.68359375,-8.21484375,0.765625
732737061,0.9715576171875,0.05859375,0.0345458984375,0.2269287109375,-0.68359375,-8.21484375,0.765625
732745061,0.97119140625,0.05877685546875,0.0352783203125,0.22833251953125,0.16015625,-9.49609375,1.578125
732748061,0.9708251953125,0.058837890625,0.03607177734375,0.2296142578125,0.16015625,-9.49609375,1.578125
732752061,0.97052001953125,0.05889892578125,0.036865234375,0.2308349609375,0.16015625,-9.49609375,1.578125
732758061,0.9703369140625,0.05902099609375,0.03741455078125,0.2315673828125,0.24609375,-10.46875,1.73828125
732767061,0.97015380859375,0.0589599609375,0.03802490234375,0.232177734375,0.24609375,-10.46875,1.73828125
732770061,0.9700927734375,0.05877685546875,0.03839111328125,0.23236083984375,0.24609375,-10.46875,1.73828125
732773061,0.9700927734375,0.05853271484375,0.038818359375,0.2322998046875,0.24609375,-10.46875,1.73828125
732783061,0.97021484375,0.0582275390625,0.03936767578125,0.2318115234375,0.5,-11.2734375,1.5078125
732787061,0.97039794921875,0.057861328125,0.039794921875,0.23114013671875,0.5,-11.2734375,1.5078125
732790061,0.970703125,0.0572509765625,0.04046630859375,0.2298583984375,0.5,-11.2734375,1.5078125
732793061,0.97100830078125,0.05682373046875,0.041015625,0.22869873046875,0.5,-11.2734375,1.5078125
732797061,0.97149658203125,0.05609130859375,0.041748046875,0.22662353515625,0.5,-11.2734375,1.5078125
732803061,0.97186279296875,0.05560302734375,0.042236328125,0.22491455078125,0.5078125,-10.5,1.77734375
732810061,0.9725341796875,0.054931640625,0.0428466796875,0.22210693359375,0.5234375,-10.33203125,1.96875
732813061,0.9730224609375,0.05450439453125,0.043212890625,0.21990966796875,0.5234375,-10.33203125,1.96875
732817061,0.973876953125,0.05401611328125,0.043701171875,0.2161865234375,0.5234375,-10.33203125,1.96875
732824061,0.97454833984375,0.0538330078125,0.04388427734375,0.21319580078125,0.02734375,-9.37109375,1.921875
732828061,0.97552490234375,0.0535888671875,0.04400634765625,0.208740234375,0.02734375,-9.37109375,1.921875
732831061,0.9764404296875,0.05340576171875,0.04400634765625,0.204345703125,0.02734375,-9.37109375,1.921875
732838061,0.977294921875,0.05328369140625,0.04376220703125,0.20050048828125,-0.1796875,-8.6953125,1.65234375
732846061,0.97845458984375,0.052978515625,0.04339599609375,0.19476318359375,-0.5546875,-7.71484375,1.19140625
732849061,0.9794921875,0.0526123046875,0.04296875,0.189697265625,-0.5546875,-7.71484375,1.19140625
732852061,0.9803466796875,0.05218505859375,0.0426025390625,0.18536376953125,-0.5546875,-7.71484375,1.19140625
732856061,0.98150634765625,0.05145263671875,0.0419921875,0.1795654296875,-0.5546875,-7.71484375,1.19140625
732863061,0.98260498046875,0.05059814453125,0.0413818359375,0.17388916015625,-1.4453125,-6.08203125,0.49609375
732870061,0.98388671875,0.04931640625,0.04052734375,0.1668701171875,-1.71875,-5.5546875,0.48828125
732873061,0.98480224609375,0.0482177734375,0.03985595703125,0.1619873046875,-1.71875,-5.5546875,0.48828125
732877061,0.98614501953125,0.0465087890625,0.03887939453125,0.15447998046875,-1.71875,-5.5546875,0.48828125
732884061,0.98699951171875,0.04534912109375,0.03826904296875,0.14935302734375,-1.875,-3.59765625,0.3671875
732888061,0.988037109375,0.0440673828125,0.03759765625,0.14288330078125,-1.875,-3.59765625,0.3671875
732891061,0.9892578125,0.0426025390625,0.03692626953125,0.13482666015625,-1.875,-3.59765625,0.3671875
732897061,0.99005126953125,0.0418701171875,0.03662109375,0.1292724609375,-2.03515625,-2.69921875,0.234375
732905061,0.990966796875,0.04119873046875,0.0362548828125,0.12237548828125,-2.2265625,-1.2890625,0.07421875
732908061,0.9918212890625,0.040771484375,0.0361328125,0.11529541015625,-2.2265625,-1.2890625,0.07421875
732918061,0.993408203125,0.04095458984375,0.03607177734375,0.1007080078125,-2.02734375,0.3984375,0.07421875
732926061,0.99407958984375,0.04150390625,0.03619384765625,0.093505859375,-1.93359375,1.28515625,0.37890625
732932061,0.99481201171875,0.0426025390625,0.03643798828125,0.08465576171875,-1.93359375,1.28515625,0.37890625
732936061,0.9957275390625,0.0447998046875,0.03662109375,0.07177734375,-1.93359375,1.28515625,0.37890625
732946061,0.99615478515625,0.04620361328125,0.03656005859375,0.06494140625,-2.21875,2.78515625,0.00390625
732949061,0.99652099609375,0.04766845703125,0.036376953125,0.0582275390625,-2.21875,2.78515625,0.00390625
732952061,0.996826171875,0.04931640625,0.0361328125,0.051513671875,-2.21875,2.78515625,0.00390625
732956061,0.99700927734375,0.05096435546875,0.035888671875,0.045166015625,-2.21875,2.78515625,0.00390625
732963061,0.9971923828125,0.0526123046875,0.03558349609375,0.03900146484375,-1.91015625,3.96484375,0.2109375
732967061,0.99737548828125,0.0545654296875,0.0352783203125,0.03277587890625,-1.91015625,3.96484375,0.2109375
732970061,0.9974365234375,0.05670166015625,0.0350341796875,0.02691650390625,-1.91015625,3.96484375,0.2109375
732977061,0.9974365234375,0.059326171875,0.03485107421875,0.02105712890625,-2.140625,4.5625,0.52734375
732985061,0.997314453125,0.06298828125,0.03460693359375,0.01495361328125,-1.8046875,5.90625,1.1484375
732988061,0.9970703125,0.0677490234375,0.03448486328125,0.00885009765625,-1.8046875,5.90625,1.1484375
732992061,0.99664306640625,0.07403564453125,0.0343017578125,0.0025634765625,-1.8046875,5.90625,1.1484375
732996061,0.99603271484375,0.08251953125,0.033935546875,-0.00421142578125,-1.8046875,5.90625,1.1484375
733003061,0.9951171875,0.09228515625,0.0333251953125,-0.0106201171875,-2.41015625,8.84375,0.4296875
733007061,0.9937744140625,0.10498046875,0.032470703125,-0.01763916015625,-2.41015625,8.84375,0.4296875
733010061,0.99200439453125,0.1195068359375,0.0313720703125,-0.0245361328125,-2.41015625,8.84375,0.4296875
733017061,0.989990234375,0.134521484375,0.0302734375,-0.03076171875,-2.140625,8.8828125,-0.58203125
733025061,0.98724365234375,0.152099609375,0.02911376953125,-0.03717041015625,-2.140625,8.7421875,-2.25390625
733028061,0.98394775390625,0.17083740234375,0.02813720703125,-0.04315185546875,-2.140625,8.7421875,-2.25390625
733032061,0.98040771484375,0.1890869140625,0.02740478515625,-0.04840087890625,-2.140625,8.7421875,-2.25390625
733036061,0.9759521484375,0.2095947265625,0.02691650390625,-0.0535888671875,-2.140625,8.7421875,-2.25390625
733045061,0.9710693359375,0.22998046875,0.0267333984375,-0.05816650390625,-1.50390625,7.640625,-3.44140625
733048061,0.9656982421875,0.250732421875,0.02679443359375,-0.0623779296875,-1.50390625,7.640625,-3.44140625
733051061,0.95953369140625,0.2723388671875,0.02716064453125,-0.06622314453125,-1.50390625,7.640625,-3.44140625
733061061,0.9534912109375,0.2921142578125,0.027587890625,-0.06927490234375,-0.11328125,6.00390625,-2.4375
733065061,0.9466552734375,0.31280517578125,0.028076171875,-0.0718994140625,-0.11328125,6.00390625,-2.4375
733068061,0.94000244140625,0.3319091796875,0.0284423828125,-0.07379150390625,-0.11328125,6.00390625,-2.4375
733079061,0.93304443359375,0.35064697265625,0.0284423828125,-0.07513427734375,-0.05078125,3.63671875,-1.1640625
733083061,0.92022705078125,0.38299560546875,0.0267333984375,-0.07635498046875,-0.05078125,3.63671875,-1.1640625
733086061,0.9140625,0.39752197265625,0.02471923828125,-0.0765380859375,-0.05078125,3.63671875,-1.1640625
733094061,0.90875244140625,0.40960693359375,0.02215576171875,-0.07672119140625,0.140625,0.21875,0.09375
733098061,0.903564453125,0.4210205078125,0.01898193359375,-0.07708740234375,0.140625,0.21875,0.09375
733102061,0.8983154296875,0.43212890625,0.0150146484375,-0.0777587890625,0.140625,0.21875,0.09375
733106061,0.89349365234375,0.44195556640625,0.01068115234375,-0.0787353515625,0.140625,0.21875,0.09375
733113061,0.88934326171875,0.45013427734375,0.00640869140625,-0.07989501953125,-1.140625,-0.23828125,-1.5234375
733117061,0.8846435546875,0.45904541015625,0.0010986328125,-0.08148193359375,-1.140625,-0.23828125,-1.5234375
733122061,0.88018798828125,0.46722412109375,-0.00421142578125,-0.0831298828125,-1.140625,-0.23828125,-1.5234375
733127061,0.87591552734375,0.47479248046875,-0.00946044921875,-0.08477783203125,-0.84765625,0.34765625,-2.31640625
733134061,0.87158203125,0.4822998046875,-0.01458740234375,-0.08642578125,-0.84765625,0.34765625,-2.31640625
733137061,0.8673095703125,0.48956298828125,-0.0194091796875,-0.08795166015625,-0.84765625,0.34765625,-2.31640625
733141061,0.86236572265625,0.49774169921875,-0.024658203125,-0.08935546875,-0.84765625,0.34765625,-2.31640625
733150061,0.85791015625,0.50494384765625,-0.02923583984375,-0.0904541015625,-1.171875,1.09375,-2.53125
733154061,0.85284423828125,0.512939453125,-0.0341796875,-0.091552734375,-1.171875,1.09375,-2.53125
733157061,0.847412109375,0.5213623046875,-0.039306640625,-0.092529296875,-1.171875,1.09375,-2.53125
733161061,0.84149169921875,0.5302734375,-0.04461669921875,-0.09344482421875,-1.171875,1.09375,-2.53125
733170061,0.83624267578125,0.5379638671875,-0.04931640625,-0.09417724609375,-1.078125,0.51953125,-1.0
733174061,0.83038330078125,0.54632568359375,-0.054443359375,-0.094970703125,-1.078125,0.51953125,-1.0
733177061,0.82421875,0.554931640625,-0.059814453125,-0.09564208984375,-1.078125,0.51953125,-1.0
733181061,0.8177490234375,0.56365966796875,-0.06549072265625,-0.0963134765625,-1.078125,0.51953125,-1.0
733187061,0.812255859375,0.5709228515625,-0.0704345703125,-0.09686279296875,-1.54296875,-0.8359375,-0.875
733191061,0.80560302734375,0.579345703125,-0.07623291015625,-0.097412109375,-1.54296875,-0.8359375,-0.875
733198061,0.80023193359375,0.5860595703125,-0.0809326171875,-0.0977783203125,-0.79296875,-1.48046875,-1.23828125
733202061,0.794189453125,0.593505859375,-0.086181640625,-0.09808349609375,-0.79296875,-1.48046875,-1.23828125
733210061,0.78857421875,0.6002197265625,-0.09112548828125,-0.09832763671875,-1.015625,-1.8203125,-1.34765625
733213061,0.78375244140625,0.60577392578125,-0.09539794921875,-0.098388671875,-1.015625,-1.8203125,-1.34765625
733217061,0.77838134765625,0.61181640625,-0.1002197265625,-0.0985107421875,-1.015625,-1.8203125,-1.34765625
733221061,0.77349853515625,0.61724853515625,-0.104736328125,-0.09857177734375,-1.015625,-1.8203125,-1.34765625
733227061,0.76953125,0.62152099609375,-0.10845947265625,-0.09857177734375,-0.74609375,-1.625,-0.66796875
733234061,0.764892578125,0.62646484375,-0.113037109375,-0.0985107421875,-0.74609375,-1.625,-0.66796875
733237061,0.76123046875,0.63018798828125,-0.1168212890625,-0.09844970703125,-0.74609375,-1.625,-0.66796875
733241061,0.75714111328125,0.63427734375,-0.121337890625,-0.09820556640625,-0.74609375,-1.625,-0.66796875
733252061,0.7540283203125,0.63739013671875,-0.12493896484375,-0.097900390625,0.75390625,-0.69140625,1.01171875
733256061,0.74688720703125,0.6441650390625,-0.1334228515625,-0.0970458984375,0.75390625,-0.69140625,1.01171875
733260061,0.7442626953125,0.646484375,-0.136962890625,-0.09674072265625,0.75390625,-0.69140625,1.01171875
733270061,0.7413330078125,0.64886474609375,-0.1417236328125,-0.09649658203125,1.2578125,-1.0,1.69921875
733273061,0.73931884765625,0.65020751953125,-0.14599609375,-0.096435546875,1.2578125,-1.0,1.69921875
733277061,0.73760986328125,0.65087890625,-0.1513671875,-0.09674072265625,1.2578125,-1.0,1.69921875
733281061,0.7366943359375,0.6505126953125,-0.15704345703125,-0.09735107421875,1.2578125,-1.0,1.69921875
733288061,0.736572265625,0.649169921875,-0.1624755859375,-0.09820556640625,0.8984375,-1.7734375,1.0390625
733292061,0.73736572265625,0.6463623046875,-0.16912841796875,-0.09954833984375,0.8984375,-1.7734375,1.0390625
733296061,0.739013671875,0.6424560546875,-0.17572021484375,-0.10101318359375,0.8984375,-1.7734375,1.0390625
733302061,0.7413330078125,0.637939453125,-0.1815185546875,-0.10235595703125,-0.30859375,-1.44140625,-0.56640625
733306061,0.74560546875,0.63055419921875,-0.18896484375,-0.10406494140625,-0.30859375,-1.44140625,-0.56640625
733313061,0.74981689453125,0.62353515625,-0.19464111328125,-0.10528564453125,0.76171875,-0.22265625,-1.50390625
733317061,0.75616455078125,0.6134033203125,-0.20159912109375,-0.1065673828125,0.76171875,-0.22265625,-1.50390625
733325061,0.762939453125,0.60260009765625,-0.20782470703125,-0.107421875,1.0703125,1.14453125,-1.9296875
733328061,0.7694091796875,0.59246826171875,-0.21295166015625,-0.10791015625,1.0703125,1.14453125,-1.9296875
733332061,0.77801513671875,0.57879638671875,-0.2191162109375,-0.108154296875,1.0703125,1.14453125,-1.9296875
733336061,0.786376953125,0.565185546875,-0.22467041015625,-0.1080322265625,1.0703125,1.14453125,-1.9296875
733342061,0.79345703125,0.55352783203125,-0.22906494140625,-0.107666015625,0.0078125,1.05859375,-2.6640625
733349061,0.80303955078125,0.53729248046875,-0.234619140625,-0.1070556640625,0.0078125,1.05859375,-2.6640625
733352061,0.81036376953125,0.52447509765625,-0.238525390625,-0.1064453125,0.0078125,1.05859375,-2.6640625
733356061,0.81976318359375,0.5078125,-0.24285888671875,-0.1055908203125,0.0078125,1.05859375,-2.6640625
733360061,0.82684326171875,0.494873046875,-0.24566650390625,-0.1048583984375,0.0078125,1.05859375,-2.6640625
733369061,0.8358154296875,0.478271484375,-0.2486572265625,-0.10400390625,0.9375,0.1640625,-1.109375
733372061,0.84228515625,0.4659423828125,-0.25042724609375,-0.10345458984375,0.9375,0.1640625,-1.109375
733376061,0.85076904296875,0.44927978515625,-0.25238037109375,-0.1029052734375,0.9375,0.1640625,-1.109375
733380061,0.857177734375,0.43621826171875,-0.25372314453125,-0.10260009765625,0.9375,0.1640625,-1.109375
733389061,0.865234375,0.419189453125,-0.25537109375,-0.10235595703125,0.36328125,0.84375,-0.20703125
733392061,0.87103271484375,0.40631103515625,-0.2564697265625,-0.10235595703125,0.36328125,0.84375,-0.20703125
733396061,0.87884521484375,0.38800048828125,-0.25811767578125,-0.10247802734375,0.36328125,0.84375,-0.20703125
733400061,0.88427734375,0.37451171875,-0.2593994140625,-0.10272216796875,0.36328125,0.84375,-0.20703125
733406061,0.891357421875,0.35565185546875,-0.26141357421875,-0.10321044921875,0.08203125,0.8984375,1.33203125
733413061,0.896484375,0.34112548828125,-0.26312255859375,-0.1036376953125,-0.01953125,0.70703125,1.84765625
733417061,0.90313720703125,0.3209228515625,-0.26556396484375,-0.10430908203125,-0.01953125,0.70703125,1.84765625
733425061,0.90887451171875,0.30206298828125,-0.26788330078125,-0.1048583984375,0.43359375,1.06640625,1.5859375
733428061,0.91339111328125,0.2861328125,-0.26971435546875,-0.105224609375,0.43359375,1.06640625,1.5859375
733431061,0.91851806640625,0.26708984375,-0.2718505859375,-0.10552978515625,0.43359375,1.06640625,1.5859375
733435061,0.9234619140625,0.2469482421875,-0.27392578125,-0.105712890625,0.43359375,1.06640625,1.5859375
733444061,0.92852783203125,0.2244873046875,-0.2762451171875,-0.10552978515625,0.15234375,1.78125,1.171875
733447061,0.93194580078125,0.207763671875,-0.27789306640625,-0.105224609375,0.15234375,1.78125,1.171875
733451061,0.93621826171875,0.1845703125,-0.28021240234375,-0.10455322265625,0.15234375,1.78125,1.171875
733455061,0.93890380859375,0.1680908203125,-0.28179931640625,-0.10382080078125,0.15234375,1.78125,1.171875
733464061,0.94207763671875,0.14617919921875,-0.283935546875,-0.1026611328125,0.375,2.14453125,1.23046875
733467061,0.94403076171875,0.1302490234375,-0.2855224609375,-0.1015625,0.375,2.14453125,1.23046875
733471061,0.9462890625,0.10888671875,-0.2874755859375,-0.09991455078125,0.375,2.14453125,1.23046875
733475061,0.9476318359375,0.093994140625,-0.28875732421875,-0.0986328125,0.375,2.14453125,1.23046875
733484061,0.9490966796875,0.07403564453125,-0.29034423828125,-0.09674072265625,0.078125,1.15234375,0.27734375
733487061,0.94989013671875,0.060791015625,-0.29132080078125,-0.095458984375,0.078125,1.15234375,0.27734375
733491061,0.95074462890625,0.0421142578125,-0.29254150390625,-0.09356689453125,0.078125,1.15234375,0.27734375
733495061,0.951171875,0.02923583984375,-0.29315185546875,-0.09228515625,0.078125,1.15234375,0.27734375
733501061,0.9515380859375,0.01202392578125,-0.29364013671875,-0.09051513671875,-0.41796875,0.30078125,-1.47265625
733508061,0.95172119140625,0.00067138671875,-0.2935791015625,-0.08941650390625,0.078125,-0.4140625,-2.0546875
733512061,0.9520263671875,-0.01513671875,-0.2928466796875,-0.08782958984375,0.078125,-0.4140625,-2.0546875
733520061,0.9521484375,-0.02850341796875,-0.2916259765625,-0.08660888671875,0.19140625,-0.96875,-1.02734375
733524061,0.95233154296875,-0.03875732421875,-0.2901611328125,-0.0858154296875,0.19140625,-0.96875,-1.02734375
733527061,0.9525146484375,-0.05133056640625,-0.287841796875,-0.08502197265625,0.19140625,-0.96875,-1.02734375
733531061,0.95257568359375,-0.06683349609375,-0.28466796875,-0.084228515625,0.19140625,-0.96875,-1.02734375
733535061,0.9525146484375,-0.07720947265625,-0.28240966796875,-0.08367919921875,0.19140625,-0.96875,-1.02734375
733541061,0.9521484375,-0.092529296875,-0.279296875,-0.082763671875,0.1640625,-0.00390625,-0.01171875
733548061,0.95166015625,-0.10321044921875,-0.27734375,-0.08203125,0.203125,0.0625,1.0
733552061,0.95068359375,-0.1190185546875,-0.2747802734375,-0.0806884765625,0.203125,0.0625,1.0
733556061,0.94976806640625,-0.1304931640625,-0.273193359375,-0.07952880859375,0.203125,0.0625,1.0
733564061,0.94830322265625,-0.144287109375,-0.271728515625,-0.077880859375,0.00390625,0.28515625,0.63671875
733567061,0.94659423828125,-0.158203125,-0.2705078125,-0.07598876953125,0.00390625,0.28515625,0.63671875
733570061,0.94415283203125,-0.17535400390625,-0.26922607421875,-0.07342529296875,0.00390625,0.28515625,0.63671875
733577061,0.94232177734375,-0.1866455078125,-0.26849365234375,-0.071533203125,0.19140625,0.7265625,0.00390625
733583061,0.939453125,-0.2030029296875,-0.267333984375,-0.068603515625,0.19140625,0.7265625,0.00390625
733586061,0.93719482421875,-0.2152099609375,-0.26641845703125,-0.06622314453125,0.19140625,0.7265625,0.00390625
733590061,0.93524169921875,-0.22515869140625,-0.26556396484375,-0.06402587890625,0.19140625,0.7265625,0.00390625
733600061,0.9327392578125,-0.23760986328125,-0.26422119140625,-0.06085205078125,-0.7734375,0.9453125,-2.05859375
733604061,0.9312744140625,-0.2452392578125,-0.26300048828125,-0.05865478515625,-0.7734375,0.9453125,-2.05859375
733607061,0.92962646484375,-0.25372314453125,-0.26123046875,-0.0560302734375,-0.7734375,0.9453125,-2.05859375
733611061,0.928466796875,-0.26080322265625,-0.259033203125,-0.0535888671875,-0.7734375,0.9453125,-2.05859375
733615061,0.9276123046875,-0.26715087890625,-0.255859375,-0.05133056640625,-0.7734375,0.9453125,-2.05859375
733625061,0.92730712890625,-0.2723388671875,-0.25201416015625,-0.0496826171875,-1.046875,-0.39453125,-6.00390625
733628061,0.92730712890625,-0.27734375,-0.24664306640625,-0.0484619140625,-1.046875,-0.39453125,-6.00390625
733631061,0.927734375,-0.28155517578125,-0.240234375,-0.04803466796875,-1.046875,-0.39453125,-6.00390625
733635061,0.9285888671875,-0.28515625,-0.23248291015625,-0.04833984375,-1.046875,-0.39453125,-6.00390625
733642061,0.9298095703125,-0.28765869140625,-0.2242431640625,-0.04925537109375,0.328125,0.4609375,-0.93359375
733646061,0.931396484375,-0.28948974609375,-0.21466064453125,-0.0509033203125,0.328125,0.4609375,-0.93359375
733649061,0.93316650390625,-0.2906494140625,-0.204833984375,-0.05291748046875,0.328125,0.4609375,-0.93359375
733656061,0.9346923828125,-0.2913818359375,-0.1961669921875,-0.05474853515625,-0.64453125,1.0546875,-2.4453125
733664061,0.9361572265625,-0.29193115234375,-0.18756103515625,-0.05621337890625,-3.50390625,1.75390625,-0.3125
733667061,0.93756103515625,-0.29229736328125,-0.1798095703125,-0.056884765625,-3.50390625,1.75390625,-0.3125
733671061,0.93878173828125,-0.29229736328125,-0.17315673828125,-0.056884765625,-3.50390625,1.75390625,-0.3125
733675061,0.94024658203125,-0.291748046875,-0.1663818359375,-0.05645751953125,-3.50390625,1.75390625,-0.3125
733682061,0.94171142578125,-0.29058837890625,-0.159912109375,-0.0557861328125,-1.484375,3.35546875,-1.9453125
733686061,0.94342041015625,-0.288818359375,-0.15325927734375,-0.054931640625,-1.484375,3.35546875,-1.9453125
733689061,0.9454345703125,-0.28619384765625,-0.1461181640625,-0.05401611328125,-1.484375,3.35546875,-1.9453125
733696061,0.94757080078125,-0.28277587890625,-0.138916015625,-0.0531005859375,-1.26171875,3.27734375,-1.98046875
733704061,0.9500732421875,-0.27825927734375,-0.1312255859375,-0.05230712890625,-2.3515625,2.2890625,-2.22265625
733707061,0.95269775390625,-0.2728271484375,-0.12359619140625,-0.051513671875,-2.3515625,2.2890625,-2.22265625
733711061,0.95556640625,-0.26629638671875,-0.1158447265625,-0.05078125,-2.3515625,2.2890625,-2.22265625
733715061,0.95867919921875,-0.25836181640625,-0.107666015625,-0.05023193359375,-2.3515625,2.2890625,-2.22265625
733724061,0.9617919921875,-0.24993896484375,-0.10009765625,-0.04998779296875,-2.40234375,2.375,-1.546875
733727061,0.965087890625,-0.24005126953125,-0.09210205078125,-0.0499267578125,-2.40234375,2.375,-1.546875
733738061,0.9686279296875,-0.2286376953125,-0.083740234375,-0.05010986328125,-2.4140625,2.57421875,-1.42578125
733742061,0.975341796875,-0.20379638671875,-0.06719970703125,-0.05108642578125,-2.4140625,2.57421875,-1.42578125
733745061,0.978759765625,-0.1895751953125,-0.058349609375,-0.0518798828125,-2.4140625,2.57421875,-1.42578125
733756061,0.98486328125,-0.15972900390625,-0.04095458984375,-0.05316162109375,-1.7890625,3.546875,-0.48828125
733764061,0.98785400390625,-0.142578125,-0.03155517578125,-0.05352783203125,-1.47265625,3.8046875,-0.21875
733767061,0.9903564453125,-0.1258544921875,-0.022705078125,-0.05364990234375,-1.47265625,3.8046875,-0.21875
733775061,0.9945068359375,-0.0897216796875,-0.0048828125,-0.0533447265625,-2.05078125,4.2578125,0.1484375
733782061,0.99603271484375,-0.071044921875,0.00372314453125,-0.05303955078125,-2.0625,2.70703125,-0.1015625
733786061,0.99725341796875,-0.05010986328125,0.0130615234375,-0.05279541015625,-2.0625,2.70703125,-0.1015625
733794061,0.99810791015625,-0.0081787109375,0.03118896484375,-0.0526123046875,-2.85546875,1.703125,-0.140625
733802061,0.9976806640625,0.0130615234375,0.04034423828125,-0.052734375,-2.48828125,0.1328125,-0.01171875
733806061,0.9967041015625,0.0355224609375,0.05029296875,-0.052978515625,-2.48828125,0.1328125,-0.01171875
733816061,0.993408203125,0.0743408203125,0.06866455078125,-0.05389404296875,-1.92578125,-1.8359375,0.96484375
733820061,0.990966796875,0.09375,0.07855224609375,-0.0545654296875,-1.92578125,-1.8359375,0.96484375
733824061,0.9886474609375,0.10931396484375,0.0867919921875,-0.05517578125,-1.92578125,-1.8359375,0.96484375
733834061,0.9857177734375,0.1263427734375,0.09619140625,-0.05596923828125,-1.078125,-3.82421875,1.97265625
733837061,0.98321533203125,0.1390380859375,0.10357666015625,-0.0567626953125,-1.078125,-3.82421875,1.97265625
733841061,0.9803466796875,0.152099609375,0.11151123046875,-0.05780029296875,-1.078125,-3.82421875,1.97265625
733851061,0.9776611328125,0.1632080078125,0.11846923828125,-0.05889892578125,-0.984375,-2.69921875,2.140625
733855061,0.97296142578125,0.18072509765625,0.13006591796875,-0.06121826171875,-0.984375,-2.69921875,2.140625
733862061,0.970947265625,0.1875,0.1348876953125,-0.062255859375,-0.97265625,-1.5,0.66015625
733866061,0.96881103515625,0.1943359375,0.14013671875,-0.0633544921875,-0.97265625,-1.5,0.66015625
733874061,0.96502685546875,0.2054443359375,0.1494140625,-0.0650634765625,-0.7890625,0.61328125,-0.296875
733881061,0.9630126953125,0.2109375,0.15411376953125,-0.0657958984375,-0.875,1.3984375,-0.34765625
733889061,0.960693359375,0.21728515625,0.159423828125,-0.066650390625,-0.359375,1.421875,0.10546875
733892061,0.9586181640625,0.222900390625,0.1639404296875,-0.06744384765625,-0.359375,1.421875,0.10546875
733896061,0.95599365234375,0.229736328125,0.16925048828125,-0.068603515625,-0.359375,1.421875,0.10546875
733900061,0.95330810546875,0.236572265625,0.17425537109375,-0.0699462890625,-0.359375,1.421875,0.10546875
733906061,0.950927734375,0.24261474609375,0.1783447265625,-0.07122802734375,-0.11328125,1.41015625,1.85546875
733910061,0.94781494140625,0.25048828125,0.1832275390625,-0.07293701171875,-0.11328125,1.41015625,1.85546875
733917061,0.9454345703125,0.25653076171875,0.1866455078125,-0.0743408203125,-0.2578125,1.62109375,2.578125
733921061,0.94256591796875,0.263916015625,0.190185546875,-0.075927734375,-0.2578125,1.62109375,2.578125
733931061,0.94000244140625,0.2705078125,0.19287109375,-0.07733154296875,0.28125,2.0859375,2.22265625
733935061,0.93560791015625,0.2823486328125,0.19635009765625,-0.0797119140625,0.28125,2.0859375,2.22265625
733939061,0.93377685546875,0.287353515625,0.197265625,-0.0806884765625,0.28125,2.0859375,2.22265625
733949061,0.931640625,0.29351806640625,0.197998046875,-0.081787109375,0.015625,2.01171875,1.58203125
733952061,0.929931640625,0.29840087890625,0.19830322265625,-0.08270263671875,0.015625,2.01171875,1.58203125
733956061,0.927978515625,0.30413818359375,0.1983642578125,-0.08367919921875,0.015625,2.01171875,1.58203125
733960061,0.9261474609375,0.30950927734375,0.19830322265625,-0.0845947265625,0.015625,2.01171875,1.58203125
733970061,0.924560546875,0.31414794921875,0.19818115234375,-0.0853271484375,-0.89453125,2.671875,-0.79296875
733974061,0.9227294921875,0.31939697265625,0.197998046875,-0.08599853515625,-0.89453125,2.671875,-0.79296875
733977061,0.92083740234375,0.32476806640625,0.19781494140625,-0.0865478515625,-0.89453125,2.671875,-0.79296875
733981061,0.9185791015625,0.33111572265625,0.19744873046875,-0.0869140625,-0.89453125,2.671875,-0.79296875
733988061,0.9163818359375,0.33734130859375,0.19708251953125,-0.08697509765625,-0.16015625,6.13671875,-0.875
733991061,0.9144287109375,0.343017578125,0.1966552734375,-0.08660888671875,-0.16015625,6.13671875,-0.875
733995061,0.91168212890625,0.350830078125,0.196044921875,-0.085693359375,-0.16015625,6.13671875,-0.875
733999061,0.909423828125,0.3572998046875,0.19525146484375,-0.08453369140625,-0.16015625,6.13671875,-0.875
734006061,0.906494140625,0.36578369140625,0.19390869140625,-0.08245849609375,-0.08984375,7.21484375,0.19140625
734014061,0.90130615234375,0.38134765625,0.190185546875,-0.07763671875,0.7109375,6.69140625,1.37109375
734021061,0.89825439453125,0.3905029296875,0.1873779296875,-0.074462890625,0.77734375,4.9453125,2.3828125
734025061,0.89471435546875,0.40087890625,0.1837158203125,-0.07080078125,0.77734375,4.9453125,2.3828125
734032061,0.89202880859375,0.40875244140625,0.18060302734375,-0.068115234375,0.26953125,2.12890625,2.58984375
734036061,0.88824462890625,0.41937255859375,0.1759033203125,-0.06463623046875,0.26953125,2.12890625,2.58984375
734044061,0.88482666015625,0.42889404296875,0.17132568359375,-0.06170654296875,-0.375,-0.05078125,2.56640625
734047061,0.882080078125,0.4364013671875,0.167236328125,-0.05950927734375,-0.375,-0.05078125,2.56640625
734050061,0.87847900390625,0.446044921875,0.1614990234375,-0.05682373046875,-0.375,-0.05078125,2.56640625
734054061,0.8759765625,0.45281982421875,0.15704345703125,-0.05499267578125,-0.375,-0.05078125,2.56640625
734064061,0.87261962890625,0.4615478515625,0.1507568359375,-0.052734375,-1.3203125,-0.8671875,2.24609375
734067061,0.8701171875,0.46795654296875,0.145751953125,-0.05108642578125,-1.3203125,-0.8671875,2.24609375
734071061,0.866943359375,0.47607421875,0.13916015625,-0.04901123046875,-1.3203125,-0.8671875,2.24609375
734075061,0.864013671875,0.48321533203125,0.1331787109375,-0.0469970703125,-1.3203125,-0.8671875,2.24609375
734084061,0.861572265625,0.48907470703125,0.12841796875,-0.045166015625,-1.40625,1.171875,0.20703125
734088061,0.8585205078125,0.49591064453125,0.1229248046875,-0.042724609375,-1.40625,1.171875,0.20703125
734091061,0.85540771484375,0.50286865234375,0.11767578125,-0.03985595703125,-1.40625,1.171875,0.20703125
734095061,0.85137939453125,0.51129150390625,0.111572265625,-0.03594970703125,-1.40625,1.171875,0.20703125
734105061,0.84832763671875,0.5174560546875,0.107177734375,-0.03277587890625,-0.03515625,4.15234375,0.5390625
734109061,0.8446044921875,0.52490234375,0.10186767578125,-0.02862548828125,-0.03515625,4.15234375,0.5390625
734113061,0.840576171875,0.53253173828125,0.09619140625,-0.02410888671875,-0.03515625,4.15234375,0.5390625
734116061,0.836181640625,0.54071044921875,0.08984375,-0.0191650390625,-0.03515625,4.15234375,0.5390625
734123061,0.8306884765625,0.550537109375,0.08209228515625,-0.01336669921875,-0.07421875,2.13671875,3.3125
734126061,0.82659912109375,0.55743408203125,0.0765380859375,-0.0093994140625,-0.07421875,2.13671875,3.3125
734130061,0.82037353515625,0.56768798828125,0.06805419921875,-0.00390625,-0.07421875,2.13671875,3.3125
734134061,0.8157958984375,0.5750732421875,0.06170654296875,-0.00042724609375,-0.07421875,2.13671875,3.3125
734142061,0.81024169921875,0.58355712890625,0.053955078125,0.00311279296875,-1.0234375,-2.3671875,4.3203125
734145061,0.803955078125,0.59295654296875,0.0445556640625,0.00640869140625,-1.0234375,-2.3671875,4.3203125
734152061,0.79913330078125,0.59991455078125,0.03692626953125,0.00823974609375,-1.64453125,-3.55078125,2.8125
734156061,0.79302978515625,0.6085205078125,0.02679443359375,0.0098876953125,-1.64453125,-3.55078125,2.8125
734164061,0.7874755859375,0.61602783203125,0.0174560546875,0.0107421875,-1.81640625,-3.66015625,1.15625
734167061,0.78314208984375,0.62164306640625,0.0101318359375,0.0111083984375,-1.81640625,-3.66015625,1.15625
734170061,0.77777099609375,0.62841796875,0.0008544921875,0.01129150390625,-1.81640625,-3.66015625,1.15625
734174061,0.772705078125,0.63458251953125,-0.0079345703125,0.01141357421875,-1.81640625,-3.66015625,1.15625
734184061,0.76776123046875,0.640380859375,-0.0164794921875,0.0115966796875,-1.859375,-1.203125,-2.73828125
734187061,0.7630615234375,0.645751953125,-0.02471923828125,0.0120849609375,-1.859375,-1.203125,-2.73828125
734191061,0.75775146484375,0.65155029296875,-0.033935546875,0.01318359375,-1.859375,-1.203125,-2.73828125
734202061,0.75335693359375,0.6561279296875,-0.0413818359375,0.01470947265625,-0.16015625,0.16796875,-1.421875
734206061,0.74609375,0.663330078125,-0.0540771484375,0.0198974609375,-0.16015625,0.16796875,-1.421875
734209061,0.74285888671875,0.66632080078125,-0.06024169921875,0.0234375,-0.16015625,0.16796875,-1.421875
734219061,0.740478515625,0.66839599609375,-0.06494140625,0.02642822265625,-0.4296875,0.83984375,1.4921875
734223061,0.7379150390625,0.6705322265625,-0.07073974609375,0.0301513671875,-0.4296875,0.83984375,1.4921875
734226061,0.7353515625,0.6724853515625,-0.07684326171875,0.0335693359375,-0.4296875,0.83984375,1.4921875
734230061,0.73223876953125,0.67474365234375,-0.08465576171875,0.0372314453125,-0.4296875,0.83984375,1.4921875
734234061,0.72998046875,0.67633056640625,-0.09033203125,0.03912353515625,-0.4296875,0.83984375,1.4921875
734241061,0.72705078125,0.67840576171875,-0.0977783203125,0.0404052734375,0.1328125,-0.96484375,4.37109375
734245061,0.72314453125,0.68109130859375,-0.107421875,0.040771484375,0.1328125,-0.96484375,4.37109375
734249061,0.7203369140625,0.6829833984375,-0.11419677734375,0.040283203125,0.1328125,-0.96484375,4.37109375
734255061,0.71673583984375,0.68536376953125,-0.1226806640625,0.03887939453125,-0.15625,-1.875,4.40625
734262061,0.71295166015625,0.68780517578125,-0.1317138671875,0.03662109375,-0.43359375,-1.74609375,1.828125
734265061,0.7093505859375,0.68994140625,-0.14044189453125,0.033935546875,-0.43359375,-1.74609375,1.828125
734268061,0.705810546875,0.69183349609375,-0.1492919921875,0.0311279296875,-0.43359375,-1.74609375,1.828125
734275061,0.70245361328125,0.69329833984375,-0.158203125,0.028564453125,-2.0859375,-0.578125,1.3671875
734283061,0.69952392578125,0.6942138671875,-0.16748046875,0.0263671875,-0.74609375,0.74609375,-1.64453125
734286061,0.69732666015625,0.69427490234375,-0.17645263671875,0.02471923828125,-0.74609375,0.74609375,-1.64453125
734289061,0.69586181640625,0.69342041015625,-0.185302734375,0.0235595703125,-0.74609375,0.74609375,-1.64453125
734299061,0.69512939453125,0.69183349609375,-0.1939697265625,0.02288818359375,0.859375,0.6015625,0.64453125
734302061,0.69512939453125,0.689453125,-0.20233154296875,0.02264404296875,0.859375,0.6015625,0.64453125
734305061,0.6959228515625,0.6861572265625,-0.2108154296875,0.02264404296875,0.859375,0.6015625,0.64453125
734309061,0.6973876953125,0.68194580078125,-0.21917724609375,0.02264404296875,0.859375,0.6015625,0.64453125
734318061,0.699462890625,0.67730712890625,-0.2269287109375,0.02252197265625,0.2578125,0.2734375,1.140625
734321061,0.70233154296875,0.67144775390625,-0.23553466796875,0.0220947265625,0.2578125,0.2734375,1.140625
734324061,0.70550537109375,0.66497802734375,-0.244140625,0.02117919921875,0.2578125,0.2734375,1.140625
734330061,0.7091064453125,0.6578369140625,-0.25299072265625,0.0196533203125,0.06640625,-0.77734375,0.3125
734337061,0.7132568359375,0.64971923828125,-0.26239013671875,0.017578125,0.06640625,-0.77734375,0.3125
734341061,0.717529296875,0.64129638671875,-0.271484375,0.01513671875,0.06640625,-0.77734375,0.3125
734344061,0.7220458984375,0.63232421875,-0.28045654296875,0.01226806640625,0.06640625,-0.77734375,0.3125
734350061,0.72674560546875,0.6229248046875,-0.28924560546875,0.0091552734375,0.37890625,-1.9375,-0.140625
734354061,0.732177734375,0.61224365234375,-0.29833984375,0.0057373046875,0.37890625,-1.9375,-0.140625
734361061,0.73736572265625,0.6021728515625,-0.30609130859375,0.002685546875,0.1796875,-3.1015625,0.5078125
734365061,0.74322509765625,0.59100341796875,-0.3135986328125,-0.00042724609375,0.1796875,-3.1015625,0.5078125
734368061,0.75006103515625,0.57806396484375,-0.3211669921875,-0.0037841796875,0.1796875,-3.1015625,0.5078125
734374061,0.75677490234375,0.56561279296875,-0.3275146484375,-0.00689697265625,0.921875,-3.49609375,-0.703125
734381061,0.7642822265625,0.5517578125,-0.3336181640625,-0.0103759765625,1.12890625,-3.6875,0.40234375
734385061,0.7725830078125,0.53631591796875,-0.33953857421875,-0.01416015625,1.12890625,-3.6875,0.40234375
734394061,0.7811279296875,0.52001953125,-0.34515380859375,-0.01812744140625,0.3125,-2.73828125,1.03515625
734398061,0.78924560546875,0.50396728515625,-0.35015869140625,-0.02191162109375,0.3125,-2.73828125,1.03515625
734401061,0.7977294921875,0.48663330078125,-0.355224609375,-0.02587890625,0.3125,-2.73828125,1.03515625
734405061,0.80645751953125,0.468017578125,-0.36016845703125,-0.0299072265625,0.3125,-2.73828125,1.03515625
734416061,0.82269287109375,0.4307861328125,-0.36907958984375,-0.03741455078125,1.4140625,-0.3828125,0.43359375
734420061,0.8306884765625,0.410888671875,-0.3734130859375,-0.041015625,1.4140625,-0.3828125,0.43359375
734423061,0.83837890625,0.3907470703125,-0.37744140625,-0.0443115234375,1.4140625,-0.3828125,0.43359375
734434061,0.8450927734375,0.3720703125,-0.38104248046875,-0.0472412109375,0.81640625,0.19921875,-0.8125
734438061,0.8516845703125,0.3526611328125,-0.3843994140625,-0.050048828125,0.81640625,0.19921875,-0.8125
734441061,0.85791015625,0.33343505859375,-0.38739013671875,-0.052734375,0.81640625,0.19921875,-0.8125
734445061,0.86395263671875,0.31378173828125,-0.389892578125,-0.055419921875,0.81640625,0.19921875,-0.8125
734454061,0.87481689453125,0.2772216796875,-0.39276123046875,-0.05999755859375,2.1796875,0.85546875,1.875
734461061,0.8797607421875,0.2598876953125,-0.39324951171875,-0.06207275390625,2.3203125,0.9765625,1.12109375
734465061,0.8846435546875,0.24188232421875,-0.39337158203125,-0.06402587890625,2.3203125,0.9765625,1.12109375
734475061,0.8927001953125,0.21044921875,-0.392822265625,-0.06732177734375,0.6953125,-0.25,0.10546875
734479061,0.89666748046875,0.19329833984375,-0.3922119140625,-0.0689697265625,0.6953125,-0.25,0.10546875
734483061,0.89996337890625,0.17816162109375,-0.3916015625,-0.07025146484375,0.6953125,-0.25,0.10546875
734493061,0.90380859375,0.1593017578125,-0.39068603515625,-0.0716552734375,-1.5234375,-1.78125,-2.32421875
734496061,0.90679931640625,0.14324951171875,-0.38970947265625,-0.07275390625,-1.5234375,-1.78125,-2.32421875
734500061,0.91021728515625,0.1243896484375,-0.3880615234375,-0.07403564453125,-1.5234375,-1.78125,-2.32421875
734504061,0.91326904296875,0.10638427734375,-0.38592529296875,-0.07513427734375,-1.5234375,-1.78125,-2.32421875
734514061,0.91595458984375,0.0908203125,-0.38336181640625,-0.07598876953125,1.03515625,-1.3828125,-1.515625
734518061,0.91876220703125,0.07470703125,-0.37994384765625,-0.0767822265625,1.03515625,-1.3828125,-1.515625
734521061,0.9215087890625,0.059814453125,-0.37579345703125,-0.07745361328125,1.03515625,-1.3828125,-1.515625
734529061,0.92437744140625,0.04547119140625,-0.37054443359375,-0.07806396484375,1.3515625,0.19921875,2.515625
734533061,0.9293212890625,0.024169921875,-0.35992431640625,-0.0792236328125,1.3515625,0.19921875,2.515625
734540061,0.93145751953125,0.01531982421875,-0.35467529296875,-0.08001708984375,0.06640625,-0.80078125,0.2734375
734548061,0.93341064453125,0.00616455078125,-0.3494873046875,-0.0809326171875,-2.3125,-2.0546875,0.2734375
734551061,0.93475341796875,-0.001220703125,-0.3458251953125,-0.08160400390625,-2.3125,-2.0546875,0.2734375
734555061,0.93597412109375,-0.00958251953125,-0.34210205078125,-0.08233642578125,-2.3125,-2.0546875,0.2734375
734559061,0.93707275390625,-0.01751708984375,-0.3387451171875,-0.08306884765625,-2.3125,-2.0546875,0.2734375
734565061,0.93792724609375,-0.0244140625,-0.33575439453125,-0.0836181640625,0.2578125,0.40234375,-0.19921875
734570061,0.93896484375,-0.0325927734375,-0.33203125,-0.0841064453125,0.2578125,0.40234375,-0.19921875
734574061,0.93988037109375,-0.0399169921875,-0.32843017578125,-0.08441162109375,0.2578125,0.40234375,-0.19921875
734580061,0.9407958984375,-0.0465087890625,-0.32501220703125,-0.0845947265625,-1.296875,-0.1875,-2.4609375
734588061,0.94195556640625,-0.05523681640625,-0.32025146484375,-0.08465576171875,-1.7109375,-0.9296875,-3.3359375
734591061,0.94287109375,-0.06243896484375,-0.316162109375,-0.08465576171875,-1.7109375,-0.9296875,-3.3359375
734595061,0.944091796875,-0.07196044921875,-0.3104248046875,-0.084716796875,-1.7109375,-0.9296875,-3.3359375
734599061,0.9453125,-0.0811767578125,-0.3043212890625,-0.08477783203125,-1.7109375,-0.9296875,-3.3359375
734607061,0.94647216796875,-0.089111328125,-0.2984619140625,-0.08477783203125,-0.578125,0.203125,-0.89453125
734610061,0.94781494140625,-0.09796142578125,-0.2913818359375,-0.08477783203125,-0.578125,0.203125,-0.89453125
734614061,0.94927978515625,-0.10791015625,-0.282958984375,-0.08465576171875,-0.578125,0.203125,-0.89453125
734620061,0.95025634765625,-0.1151123046875,-0.2767333984375,-0.08447265625,-0.6171875,-0.02734375,-0.5
734624061,0.95147705078125,-0.12457275390625,-0.2685546875,-0.08392333984375,-0.6171875,-0.02734375,-0.5
734631061,0.9522705078125,-0.13165283203125,-0.26251220703125,-0.083251953125,-0.40625,-1.296875,0.8046875
734635061,0.95306396484375,-0.14013671875,-0.25537109375,-0.082275390625,-0.40625,-1.296875,0.8046875
734638061,0.95367431640625,-0.1478271484375,-0.2490234375,-0.08123779296875,-0.40625,-1.296875,0.8046875
734648061,0.9541015625,-0.15423583984375,-0.243896484375,-0.080322265625,-0.0859375,-1.38671875,-0.34765625
734651061,0.95440673828125,-0.161376953125,-0.23828125,-0.07916259765625,-0.0859375,-1.38671875,-0.34765625
734655061,0.95465087890625,-0.16845703125,-0.23284912109375,-0.0780029296875,-0.0859375,-1.38671875,-0.34765625
734664061,0.954833984375,-0.1763916015625,-0.22650146484375,-0.07666015625,-0.1640625,-0.84375,-2.28515625
734668061,0.9549560546875,-0.1824951171875,-0.221435546875,-0.07568359375,-0.1640625,-0.84375,-2.28515625
734671061,0.955078125,-0.189208984375,-0.215576171875,-0.0745849609375,-0.1640625,-0.84375,-2.28515625
734675061,0.95526123046875,-0.19561767578125,-0.20928955078125,-0.07342529296875,-0.1640625,-0.84375,-2.28515625
734683061,0.95562744140625,-0.20263671875,-0.201416015625,-0.0721435546875,-0.171875,-0.1640625,-1.14453125
734686061,0.9559326171875,-0.20721435546875,-0.19549560546875,-0.07122802734375,-0.171875,-0.1640625,-1.14453125
734690061,0.95635986328125,-0.212646484375,-0.18768310546875,-0.07012939453125,-0.171875,-0.1640625,-1.14453125
734694061,0.95684814453125,-0.21728515625,-0.18011474609375,-0.0689697265625,-0.171875,-0.1640625,-1.14453125
734698061,0.957275390625,-0.22052001953125,-0.17425537109375,-0.0679931640625,-0.171875,-0.1640625,-1.14453125
734704061,0.9578857421875,-0.2242431640625,-0.16644287109375,-0.066650390625,-1.5703125,-0.61328125,-0.84765625
734711061,0.9583740234375,-0.2265625,-0.16070556640625,-0.065673828125,-1.3515625,-0.875,-0.94921875
734715061,0.9591064453125,-0.229248046875,-0.1529541015625,-0.06451416015625,-1.3515625,-0.875,-0.94921875
734723061,0.959716796875,-0.2315673828125,-0.145751953125,-0.0635986328125,-2.2890625,-1.29296875,-1.40625
734726061,0.96014404296875,-0.23370361328125,-0.1396484375,-0.06298828125,-2.2890625,-1.29296875,-1.40625
734729061,0.96051025390625,-0.2366943359375,-0.132080078125,-0.0623779296875,-2.2890625,-1.29296875,-1.40625
734733061,0.960693359375,-0.24053955078125,-0.1239013671875,-0.06170654296875,-2.2890625,-1.29296875,-1.40625
734740061,0.960693359375,-0.24560546875,-0.11431884765625,-0.0609130859375,-2.2890625,-0.4453125,-2.22265625
734747061,0.96044921875,-0.25079345703125,-0.1051025390625,-0.06011962890625,-1.83984375,0.5,-1.26171875
734750061,0.9600830078125,-0.2552490234375,-0.097412109375,-0.05950927734375,-1.83984375,0.5,-1.26171875
734754061,0.95947265625,-0.261962890625,-0.0858154296875,-0.05859375,-1.83984375,0.5,-1.26171875
734762061,0.95892333984375,-0.26666259765625,-0.0772705078125,-0.05792236328125,-0.89453125,1.6484375,1.94140625
734765061,0.95831298828125,-0.2716064453125,-0.0672607421875,-0.0572509765625,-0.89453125,1.6484375,1.94140625
734769061,0.95770263671875,-0.27655029296875,-0.05584716796875,-0.056396484375,-0.89453125,1.6484375,1.94140625
734775061,0.9573974609375,-0.27911376953125,-0.04815673828125,-0.05572509765625,-1.5390625,2.91796875,2.87109375
734781061,0.95733642578125,-0.28118896484375,-0.03839111328125,-0.0545654296875,-1.5390625,2.91796875,2.87109375
734785061,0.95758056640625,-0.2813720703125,-0.03125,-0.0533447265625,-1.5390625,2.91796875,2.87109375
734789061,0.95831298828125,-0.27984619140625,-0.0244140625,-0.0518798828125,-1.5390625,2.91796875,2.87109375
734795061,0.95928955078125,-0.277099609375,-0.01922607421875,-0.05059814453125,-1.58984375,3.04296875,0.8984375
734803061,0.96112060546875,-0.27154541015625,-0.01251220703125,-0.0487060546875,-1.58984375,3.04296875,0.8984375
734806061,0.96258544921875,-0.26666259765625,-0.00799560546875,-0.0474853515625,-1.58984375,3.04296875,0.8984375
734810061,0.96490478515625,-0.258544921875,-0.0013427734375,-0.0457763671875,-1.58984375,3.04296875,0.8984375
734818061,0.9669189453125,-0.2510986328125,0.00469970703125,-0.04443359375,-2.86328125,0.09375,-2.859375
734821061,0.96844482421875,-0.24530029296875,0.00982666015625,-0.0435791015625,-2.86328125,0.09375,-2.859375
734828061,0.9700927734375,-0.23834228515625,0.0167236328125,-0.04278564453125,-1.875,-0.05078125,-2.6640625
734831061,0.97186279296875,-0.230224609375,0.02593994140625,-0.04217529296875,-1.875,-0.05078125,-2.6640625
734835061,0.972900390625,-0.22491455078125,0.0325927734375,-0.04205322265625,-1.875,-0.05078125,-2.6640625
734843061,0.97430419921875,-0.2171630859375,0.04296875,-0.04217529296875,-2.55078125,1.484375,-0.7421875
734846061,0.97515869140625,-0.2115478515625,0.0504150390625,-0.0423583984375,-2.55078125,1.484375,-0.7421875
734849061,0.9761962890625,-0.203857421875,0.0599365234375,-0.042724609375,-2.55078125,1.484375,-0.7421875
734853061,0.977294921875,-0.1956787109375,0.069091796875,-0.043212890625,-2.55078125,1.484375,-0.7421875
734860061,0.9783935546875,-0.18634033203125,0.07806396484375,-0.04376220703125,-1.6875,3.19921875,2.77734375
734867061,0.9798583984375,-0.17340087890625,0.08868408203125,-0.044677734375,-1.140625,3.71875,2.140625
734872061,0.9808349609375,-0.163818359375,0.09539794921875,-0.04541015625,-1.140625,3.71875,2.140625
734875061,0.98211669921875,-0.1507568359375,0.10308837890625,-0.04644775390625,-1.140625,3.71875,2.140625
734885061,0.98333740234375,-0.13623046875,0.11029052734375,-0.0477294921875,-0.66015625,4.35546875,2.9375
734889061,0.9859619140625,-0.09844970703125,0.12451171875,-0.0516357421875,-0.66015625,4.35546875,2.9375
734893061,0.98675537109375,-0.08251953125,0.12921142578125,-0.0535888671875,-0.66015625,4.35546875,2.9375
734900061,0.9874267578125,-0.061279296875,0.134521484375,-0.056396484375,-2.24609375,4.140625,3.24609375
734904061,0.9876708984375,-0.03753662109375,0.13970947265625,-0.05975341796875,-2.24609375,4.140625,3.24609375
734908061,0.98736572265625,-0.0133056640625,0.14447021484375,-0.06329345703125,-2.24609375,4.140625,3.24609375
734914061,0.9864501953125,0.011962890625,0.1490478515625,-0.06707763671875,-1.76171875,3.5859375,2.73828125
734922061,0.98480224609375,0.038818359375,0.1536865234375,-0.07110595703125,-2.07421875,3.125,2.07421875
734925061,0.982421875,0.06463623046875,0.158203125,-0.07489013671875,-2.07421875,3.125,2.07421875
734928061,0.97943115234375,0.08990478515625,0.162841796875,-0.07855224609375,-2.07421875,3.125,2.07421875
734935061,0.975830078125,0.11395263671875,0.16754150390625,-0.08197021484375,-1.1640625,-1.29296875,1.6171875
734942061,0.97186279296875,0.13629150390625,0.17230224609375,-0.08514404296875,-1.0859375,-2.1796875,1.8984375
734945061,0.967529296875,0.15728759765625,0.17730712890625,-0.08807373046875,-1.0859375,-2.1796875,1.8984375
734948061,0.96331787109375,0.1751708984375,0.18206787109375,-0.09063720703125,-1.0859375,-2.1796875,1.8984375
734955061,0.95928955078125,0.1905517578125,0.18658447265625,-0.09295654296875,1.23046875,-3.359375,3.26171875
734962061,0.95550537109375,0.20391845703125,0.19091796875,-0.094970703125,1.9296875,-3.13671875,3.8046875
734965061,0.9521484375,0.21484375,0.19476318359375,-0.09674072265625,1.9296875,-3.13671875,3.8046875
734969061,0.94952392578125,0.22296142578125,0.1976318359375,-0.09808349609375,1.9296875,-3.13671875,3.8046875
734973061,0.947265625,0.2298583984375,0.199951171875,-0.0992431640625,1.9296875,-3.13671875,3.8046875
734980061,0.945556640625,0.23529052734375,0.20135498046875,-0.10015869140625,2.44921875,1.97265625,4.66796875
734984061,0.94415283203125,0.239990234375,0.201904296875,-0.10089111328125,2.44921875,1.97265625,4.66796875
734987061,0.9429931640625,0.24468994140625,0.20147705078125,-0.1014404296875,2.44921875,1.97265625,4.66796875
734996061,0.94189453125,0.24969482421875,0.2001953125,-0.101806640625,1.765625,4.640625,4.2421875
735000061,0.9407958984375,0.2554931640625,0.197998046875,-0.1019287109375,1.765625,4.640625,4.2421875
735003061,0.93951416015625,0.26239013671875,0.19512939453125,-0.10198974609375,1.765625,4.640625,4.2421875
735009061,0.93792724609375,0.27044677734375,0.19171142578125,-0.10198974609375,0.171875,5.4765625,1.8828125
735016061,0.935791015625,0.28033447265625,0.187744140625,-0.10198974609375,0.171875,5.4765625,1.8828125
735019061,0.93353271484375,0.29010009765625,0.1842041015625,-0.10223388671875,0.171875,5.4765625,1.8828125
735023061,0.93060302734375,0.30133056640625,0.18048095703125,-0.10296630859375,0.171875,5.4765625,1.8828125
735030061,0.92755126953125,0.3121337890625,0.1773681640625,-0.10400390625,-1.87109375,-0.234375,-0.1484375
735034061,0.9239501953125,0.32366943359375,0.17437744140625,-0.1053466796875,-1.87109375,-0.234375,-0.1484375
735042061,0.9202880859375,0.3348388671875,0.171875,-0.1068115234375,-1.046875,-0.8515625,-2.59375
735045061,0.91680908203125,0.3448486328125,0.16986083984375,-0.10791015625,-1.046875,-0.8515625,-2.59375
735049061,0.91357421875,0.35394287109375,0.168212890625,-0.108642578125,-1.046875,-0.8515625,-2.59375
735053061,0.9105224609375,0.36236572265625,0.1668701171875,-0.10870361328125,-1.046875,-0.8515625,-2.59375
735060061,0.907958984375,0.369384765625,0.165771484375,-0.10821533203125,1.51171875,1.9765625,-3.4453125
735064061,0.905517578125,0.3760986328125,0.16461181640625,-0.1070556640625,1.51171875,1.9765625,-3.4453125
735072061,0.90142822265625,0.3878173828125,0.16217041015625,-0.103515625,1.96484375,1.984375,-2.3828125
735079061,0.8995361328125,0.3934326171875,0.16046142578125,-0.1014404296875,2.25390625,1.71484375,-1.796875
735083061,0.8974609375,0.399658203125,0.1580810546875,-0.0992431640625,2.25390625,1.71484375,-1.796875
735090061,0.89556884765625,0.4052734375,0.15557861328125,-0.09747314453125,2.46484375,2.66796875,-0.1484375
735093061,0.8931884765625,0.41229248046875,0.15203857421875,-0.09564208984375,2.46484375,2.66796875,-0.1484375
735100061,0.8907470703125,0.41912841796875,0.1484375,-0.0941162109375,1.84375,2.6484375,-0.10546875
735104061,0.88787841796875,0.42706298828125,0.1439208984375,-0.0926513671875,1.84375,2.6484375,-0.10546875
735114061,0.88140869140625,0.44390869140625,0.134033203125,-0.0902099609375,1.03515625,2.4453125,-0.25
735118061,0.87750244140625,0.453369140625,0.1285400390625,-0.08892822265625,1.03515625,2.4453125,-0.25
735127061,0.87396240234375,0.46160888671875,0.12384033203125,-0.08782958984375,0.3125,0.78125,-0.65625
735131061,0.8699951171875,0.470703125,0.1187744140625,-0.0865478515625,0.3125,0.78125,-0.65625
735134061,0.8660888671875,0.47918701171875,0.11407470703125,-0.08514404296875,0.3125,0.78125,-0.65625
735138061,0.86187744140625,0.488037109375,0.1092529296875,-0.08355712890625,0.3125,0.78125,-0.65625
735144061,0.85833740234375,0.495361328125,0.10528564453125,-0.08209228515625,0.10546875,-0.4375,-1.14453125
735152061,0.85418701171875,0.5037841796875,0.10064697265625,-0.08013916015625,-0.08203125,0.08203125,-0.7109375
735155061,0.85076904296875,0.51055908203125,0.09686279296875,-0.07843017578125,-0.08203125,0.08203125,-0.7109375
735158061,0.84686279296875,0.51812744140625,0.0924072265625,-0.0762939453125,-0.08203125,0.08203125,-0.7109375
735162061,0.8436279296875,0.52435302734375,0.08856201171875,-0.0743408203125,-0.08203125,0.08203125,-0.7109375
735168061,0.83978271484375,0.5316162109375,0.08380126953125,-0.07183837890625,-0.234375,0.12109375,0.07421875
735175061,0.83660888671875,0.5374755859375,0.07965087890625,-0.06964111328125,0.01171875,1.14453125,0.6640625
735179061,0.83294677734375,0.54412841796875,0.07470703125,-0.0670166015625,0.01171875,1.14453125,0.6640625
735187061,0.829345703125,0.55059814453125,0.06982421875,-0.0643310546875,0.96484375,1.33984375,1.359375
735190061,0.82598876953125,0.55645751953125,0.0653076171875,-0.0618896484375,0.96484375,1.33984375,1.359375
735194061,0.8218994140625,0.56341552734375,0.0599365234375,-0.05908203125,0.96484375,1.33984375,1.359375
735198061,0.8177490234375,0.5701904296875,0.05462646484375,-0.0562744140625,0.96484375,1.33984375,1.359375
735204061,0.81396484375,0.57635498046875,0.049560546875,-0.0538330078125,0.31640625,0.8984375,2.3828125
735212061,0.8092041015625,0.583740234375,0.0430908203125,-0.05084228515625,0.31640625,0.8984375,2.3828125
735215061,0.80523681640625,0.58978271484375,0.03759765625,-0.04864501953125,0.31640625,0.8984375,2.3828125
735219061,0.79998779296875,0.5975341796875,0.03045654296875,-0.04608154296875,0.31640625,0.8984375,2.3828125
735229061,0.7947998046875,0.60479736328125,0.0235595703125,-0.0439453125,-0.09375,-1.09765625,2.84375
735233061,0.7845458984375,0.61871337890625,0.00946044921875,-0.04071044921875,-0.09375,-1.09765625,2.84375
735238061,0.77996826171875,0.62457275390625,0.0028076171875,-0.03955078125,-0.09375,-1.09765625,2.84375
735244061,0.774658203125,0.63116455078125,-0.00518798828125,-0.03839111328125,-1.84375,-1.9609375,2.54296875
735252061,0.76470947265625,0.64300537109375,-0.02117919921875,-0.0364990234375,-1.59375,-1.38671875,1.25
735259061,0.7596435546875,0.64874267578125,-0.029541015625,-0.03558349609375,-1.8984375,-0.32421875,1.2421875
735263061,0.754150390625,0.6546630859375,-0.0384521484375,-0.03466796875,-1.8984375,-0.32421875,1.2421875
735270061,0.749755859375,0.6593017578125,-0.04534912109375,-0.033935546875,-0.69140625,-0.27734375,0.2578125
735274061,0.74407958984375,0.66510009765625,-0.05377197265625,-0.032958984375,-0.69140625,-0.27734375,0.2578125
735277061,0.73883056640625,0.67034912109375,-0.0614013671875,-0.03192138671875,-0.69140625,-0.27734375,0.2578125
735287061,0.734375,0.67462158203125,-0.06781005859375,-0.0308837890625,0.08203125,-0.34765625,-0.0234375
735290061,0.7296142578125,0.67913818359375,-0.0748291015625,-0.02947998046875,0.08203125,-0.34765625,-0.0234375
735294061,0.724609375,0.68359375,-0.082763671875,-0.02783203125,0.08203125,-0.34765625,-0.0234375
735298061,0.7203369140625,0.687255859375,-0.09014892578125,-0.0262451171875,0.08203125,-0.34765625,-0.0234375
735308061,0.717041015625,0.68988037109375,-0.09661865234375,-0.02496337890625,-0.71484375,-2.77734375,0.125
735313061,0.71124267578125,0.6937255859375,-0.11138916015625,-0.0224609375,-0.71484375,-2.77734375,0.125
735317061,0.7091064453125,0.694580078125,-0.1192626953125,-0.02154541015625,-0.71484375,-2.77734375,0.125
735324061,0.7073974609375,0.69482421875,-0.12786865234375,-0.02093505859375,-1.34375,-3.07421875,0.40625
735333061,0.70556640625,0.69384765625,-0.14263916015625,-0.0206298828125,-1.421875,-1.41015625,0.60546875
735337061,0.7047119140625,0.6929931640625,-0.1505126953125,-0.020751953125,-1.421875,-1.41015625,0.60546875
735344061,0.70367431640625,0.69244384765625,-0.1578369140625,-0.02105712890625,0.03515625,0.59765625,1.328125
735352061,0.7003173828125,0.69244384765625,-0.17193603515625,-0.022216796875,-0.01953125,0.87890625,1.12109375
735359061,0.697998046875,0.693115234375,-0.17852783203125,-0.02294921875,-0.64453125,0.97265625,0.359375
735363061,0.69488525390625,0.6942138671875,-0.18597412109375,-0.02392578125,-0.64453125,0.97265625,0.359375
735370061,0.6925048828125,0.69512939453125,-0.1915283203125,-0.02471923828125,-0.5625,0.4921875,-1.05078125
735374061,0.6893310546875,0.69610595703125,-0.19891357421875,-0.02569580078125,-0.5625,0.4921875,-1.05078125
735382061,0.68682861328125,0.6966552734375,-0.20556640625,-0.02642822265625,0.30078125,0.18359375,-1.36328125
735385061,0.685302734375,0.696533203125,-0.2109375,-0.02691650390625,0.30078125,0.18359375,-1.36328125
735388061,0.684326171875,0.695556640625,-0.21710205078125,-0.02728271484375,0.30078125,0.18359375,-1.36328125
735392061,0.6844482421875,0.69342041015625,-0.2235107421875,-0.02740478515625,0.30078125,0.18359375,-1.36328125
735402061,0.685791015625,0.68975830078125,-0.2305908203125,-0.02734375,-0.01953125,0.1953125,-1.04296875
735405061,0.687744140625,0.68597412109375,-0.2359619140625,-0.02728271484375,-0.01953125,0.1953125,-1.04296875
735409061,0.6915283203125,0.6795654296875,-0.243408203125,-0.027099609375,-0.01953125,0.1953125,-1.04296875
735413061,0.69580078125,0.672607421875,-0.25030517578125,-0.02691650390625,-0.01953125,0.1953125,-1.04296875
735422061,0.69989013671875,0.6661376953125,-0.2562255859375,-0.02679443359375,-0.52734375,0.41796875,2.13671875
735425061,0.70526123046875,0.65765380859375,-0.26336669921875,-0.0267333984375,-0.52734375,0.41796875,2.13671875
735429061,0.71173095703125,0.6470947265625,-0.27197265625,-0.02679443359375,-0.52734375,0.41796875,2.13671875
735433061,0.71795654296875,0.63665771484375,-0.2801513671875,-0.0272216796875,-0.52734375,0.41796875,2.13671875
735442061,0.72265625,0.62847900390625,-0.286376953125,-0.02777099609375,0.58203125,-0.83984375,0.37109375
735445061,0.72845458984375,0.6182861328125,-0.29364013671875,-0.0284423828125,0.58203125,-0.83984375,0.37109375
735449061,0.7353515625,0.60614013671875,-0.3016357421875,-0.029296875,0.58203125,-0.83984375,0.37109375
735456061,0.74139404296875,0.59552001953125,-0.307861328125,-0.030029296875,1.07421875,-1.19140625,-0.23828125
735459061,0.74615478515625,0.5872802734375,-0.3121337890625,-0.03057861328125,1.07421875,-1.19140625,-0.23828125
735466061,0.75299072265625,0.5755615234375,-0.3173828125,-0.03118896484375,1.390625,-0.59765625,0.484375
735469061,0.7579345703125,0.56719970703125,-0.320556640625,-0.03155517578125,1.390625,-0.59765625,0.484375
735473061,0.7650146484375,0.555419921875,-0.324462890625,-0.03216552734375,1.390625,-0.59765625,0.484375
735481061,0.76995849609375,0.5469970703125,-0.32696533203125,-0.03271484375,0.82421875,-1.19921875,1.609375
735484061,0.776123046875,0.5361328125,-0.33026123046875,-0.03363037109375,0.82421875,-1.19921875,1.609375
735487061,0.78369140625,0.5220947265625,-0.33465576171875,-0.0352783203125,0.82421875,-1.19921875,1.609375
735494061,0.788818359375,0.5120849609375,-0.33795166015625,-0.03668212890625,0.296875,-1.328125,2.91796875
735498061,0.796630859375,0.49578857421875,-0.343505859375,-0.03955078125,0.296875,-1.328125,2.91796875
735505061,0.80194091796875,0.48406982421875,-0.34765625,-0.0418701171875,-0.66796875,-1.984375,3.05078125
735509061,0.80950927734375,0.466064453125,-0.35406494140625,-0.045654296875,-0.66796875,-1.984375,3.05078125
735513061,0.815185546875,0.45184326171875,-0.359130859375,-0.04876708984375,-0.66796875,-1.984375,3.05078125
735521061,0.82171630859375,0.43426513671875,-0.36529541015625,-0.052490234375,-1.6015625,-0.28515625,0.84375
735524061,0.82830810546875,0.41546630859375,-0.3717041015625,-0.05615234375,-1.6015625,-0.28515625,0.84375
735527061,0.83544921875,0.39373779296875,-0.37872314453125,-0.0599365234375,-1.6015625,-0.28515625,0.84375
735534061,0.840087890625,0.3790283203125,-0.38311767578125,-0.06201171875,2.64453125,2.359375,-1.10546875
735540061,0.84552001953125,0.36151123046875,-0.38775634765625,-0.063720703125,2.64453125,2.359375,-1.10546875
735543061,0.850830078125,0.34423828125,-0.39178466796875,-0.064453125,2.64453125,2.359375,-1.10546875
735549061,0.8555908203125,0.32861328125,-0.39483642578125,-0.06427001953125,2.515625,3.0859375,-1.55078125
735556061,0.8609619140625,0.3106689453125,-0.39776611328125,-0.06292724609375,2.515625,3.0859375,-1.55078125
735559061,0.86419677734375,0.29986572265625,-0.39935302734375,-0.0615234375,2.515625,3.0859375,-1.55078125
735563061,0.86822509765625,0.2861328125,-0.40106201171875,-0.05914306640625,2.515625,3.0859375,-1.55078125
735569061,0.871826171875,0.27313232421875,-0.402587890625,-0.0565185546875,0.07421875,-0.3515625,-0.8203125
735576061,0.8753662109375,0.2601318359375,-0.4039306640625,-0.05377197265625,0.07421875,-0.3515625,-0.8203125
735579061,0.87890625,0.246337890625,-0.40521240234375,-0.05096435546875,0.07421875,-0.3515625,-0.8203125
735583061,0.88226318359375,0.23272705078125,-0.40631103515625,-0.04833984375,0.07421875,-0.3515625,-0.8203125
735587061,0.8857421875,0.2181396484375,-0.4072265625,-0.04583740234375,0.07421875,-0.3515625,-0.8203125
735593061,0.88885498046875,0.2042236328125,-0.40777587890625,-0.043701171875,-0.0859375,-1.5703125,-0.9609375
735598061,0.8922119140625,0.18878173828125,-0.40814208984375,-0.0416259765625,-0.0859375,-1.5703125,-0.9609375
735605061,0.89544677734375,0.17315673828125,-0.40814208984375,-0.03961181640625,0.31640625,-0.9140625,-0.88671875
735613061,0.9012451171875,0.1439208984375,-0.40716552734375,-0.03570556640625,0.38671875,-0.2578125,-1.1875
735621061,0.904052734375,0.12933349609375,-0.406005859375,-0.0335693359375,0.0546875,-0.3828125,-1.61328125
735624061,0.9066162109375,0.1158447265625,-0.404541015625,-0.03131103515625,0.0546875,-0.3828125,-1.61328125
735627061,0.9090576171875,0.10308837890625,-0.40264892578125,-0.02880859375,0.0546875,-0.3828125,-1.61328125
735637061,0.911376953125,0.09112548828125,-0.40045166015625,-0.02618408203125,-0.04296875,-1.609375,-1.03515625
735641061,0.9136962890625,0.07952880859375,-0.39776611328125,-0.0233154296875,-0.04296875,-1.609375,-1.03515625
735644061,0.91595458984375,0.06903076171875,-0.39483642578125,-0.02056884765625,-0.04296875,-1.609375,-1.03515625
735648061,0.918212890625,0.05865478515625,-0.391357421875,-0.017822265625,-0.04296875,-1.609375,-1.03515625
735652061,0.92047119140625,0.04852294921875,-0.38751220703125,-0.0152587890625,-0.04296875,-1.609375,-1.03515625
735661061,0.9224853515625,0.03900146484375,-0.3837890625,-0.01318359375,-0.5234375,-2.234375,0.13671875
735664061,0.924560546875,0.029052734375,-0.3797607421875,-0.01123046875,-0.5234375,-2.234375,0.13671875
735668061,0.92657470703125,0.01861572265625,-0.3756103515625,-0.00946044921875,-0.5234375,-2.234375,0.13671875
735672061,0.92840576171875,0.00830078125,-0.37139892578125,-0.0078125,-0.5234375,-2.234375,0.13671875
735682061,0.929931640625,-0.00103759765625,-0.36767578125,-0.00634765625,0.18359375,-1.19140625,1.578125
735686061,0.93133544921875,-0.01043701171875,-0.36395263671875,-0.00482177734375,0.18359375,-1.19140625,1.578125
735689061,0.9326171875,-0.01947021484375,-0.36041259765625,-0.003173828125,0.18359375,-1.19140625,1.578125
735693061,0.93377685546875,-0.02838134765625,-0.35675048828125,-0.00128173828125,0.18359375,-1.19140625,1.578125
735700061,0.93487548828125,-0.0367431640625,-0.35302734375,0.000732421875,0.44921875,-0.97265625,-0.68359375
735703061,0.93597412109375,-0.04425048828125,-0.34918212890625,0.002685546875,0.44921875,-0.97265625,-0.68359375
735711061,0.93731689453125,-0.05242919921875,-0.344482421875,0.0047607421875,0.57421875,-1.9921875,-0.53125
735714061,0.9385986328125,-0.059814453125,-0.3397216796875,0.00653076171875,0.57421875,-1.9921875,-0.53125
735717061,0.94000244140625,-0.06829833984375,-0.334228515625,0.00823974609375,0.57421875,-1.9921875,-0.53125
735724061,0.94122314453125,-0.0767822265625,-0.32879638671875,0.00970458984375,-0.375,-2.15625,0.15234375
735728061,0.94244384765625,-0.08636474609375,-0.3228759765625,0.01123046875,-0.375,-2.15625,0.15234375
735735061,0.94354248046875,-0.09625244140625,-0.3167724609375,0.0125732421875,0.375,-1.35546875,1.21875
735738061,0.9444580078125,-0.10546875,-0.31103515625,0.013916015625,0.375,-1.35546875,1.21875
735741061,0.94537353515625,-0.1153564453125,-0.30450439453125,0.01544189453125,0.375,-1.35546875,1.21875
735748061,0.9461669921875,-0.1241455078125,-0.29852294921875,0.01690673828125,1.515625,-0.40234375,1.796875
735752061,0.94683837890625,-0.1326904296875,-0.29248046875,0.0185546875,1.515625,-0.40234375,1.796875
735759061,0.94732666015625,-0.13983154296875,-0.2874755859375,0.02020263671875,-0.5546875,-1.4453125,1.55078125
735763061,0.94775390625,-0.1475830078125,-0.281982421875,0.0220947265625,-0.5546875,-1.4453125,1.55078125
735773061,0.9483642578125,-0.16058349609375,-0.27239990234375,0.02569580078125,-0.8515625,-1.80859375,-0.43359375
735777061,0.94879150390625,-0.1669921875,-0.266845703125,0.0274658203125,-0.8515625,-1.80859375,-0.43359375
735786061,0.94927978515625,-0.17205810546875,-0.26165771484375,0.02880859375,-1.203125,-1.53125,-2.13671875
735790061,0.95001220703125,-0.1771240234375,-0.2552490234375,0.030029296875,-1.203125,-1.53125,-2.13671875
735793061,0.9510498046875,-0.181396484375,-0.24822998046875,0.0306396484375,-1.203125,-1.53125,-2.13671875
735797061,0.95245361328125,-0.18524169921875,-0.2398681640625,0.03082275390625,-1.203125,-1.53125,-2.13671875
735806061,0.9539794921875,-0.1881103515625,-0.23162841796875,0.030517578125,0.18359375,-1.09375,0.0625
735809061,0.9554443359375,-0.19024658203125,-0.22369384765625,0.02996826171875,0.18359375,-1.09375,0.0625
735813061,0.95703125,-0.19207763671875,-0.2152099609375,0.02923583984375,0.18359375,-1.09375,0.0625
735817061,0.95849609375,-0.19354248046875,-0.20745849609375,0.028564453125,0.18359375,-1.09375,0.0625
735823061,0.9595947265625,-0.19482421875,-0.20098876953125,0.02801513671875,-1.2421875,-0.953125,2.4140625
735827061,0.96063232421875,-0.19671630859375,-0.19415283203125,0.027587890625,-1.2421875,-0.953125,2.4140625
735834061,0.9613037109375,-0.1988525390625,-0.188720703125,0.0274658203125,-0.703125,-0.46484375,1.37890625
735838061,0.96173095703125,-0.20196533203125,-0.18316650390625,0.027587890625,-0.703125,-0.46484375,1.37890625
735846061,0.9619140625,-0.20635986328125,-0.1771240234375,0.0279541015625,-0.72265625,-0.5234375,0.109375
735849061,0.96185302734375,-0.21087646484375,-0.172119140625,0.0283203125,-0.72265625,-0.5234375,0.109375
735853061,0.96148681640625,-0.21697998046875,-0.16619873046875,0.02880859375,-0.72265625,-0.5234375,0.109375
735857061,0.96099853515625,-0.22344970703125,-0.16033935546875,0.029296875,-0.72265625,-0.5234375,0.109375
735863061,0.96044921875,-0.2293701171875,-0.15484619140625,0.02972412109375,-0.8515625,1.1328125,-0.42578125
735867061,0.95989990234375,-0.23614501953125,-0.14788818359375,0.0302734375,-0.8515625,1.1328125,-0.42578125
735874061,0.9595947265625,-0.24090576171875,-0.1419677734375,0.03057861328125,-0.05859375,2.67578125,0.59375
735878061,0.95947265625,-0.24530029296875,-0.13519287109375,0.03094482421875,-0.05859375,2.67578125,0.59375
735887061,0.9595947265625,-0.248779296875,-0.1275634765625,0.03143310546875,-0.734375,2.609375,1.796875
735891061,0.9599609375,-0.2501220703125,-0.1219482421875,0.03179931640625,-0.734375,2.609375,1.796875
735894061,0.96075439453125,-0.24981689453125,-0.1160888671875,0.03216552734375,-0.734375,2.609375,1.796875
735898061,0.96209716796875,-0.2474365234375,-0.1102294921875,0.0323486328125,-0.734375,2.609375,1.796875
735908061,0.96368408203125,-0.24334716796875,-0.1051025390625,0.0322265625,-2.13671875,1.15625,-0.94140625
735912061,0.9678955078125,-0.2305908203125,-0.095458984375,0.0302734375,-2.13671875,1.15625,-0.94140625
735917061,0.97003173828125,-0.22344970703125,-0.09100341796875,0.02862548828125,-2.13671875,1.15625,-0.94140625
735926061,0.97259521484375,-0.21453857421875,-0.08551025390625,0.02618408203125,-1.9765625,1.30078125,-3.765625
735929061,0.97528076171875,-0.205078125,-0.0792236328125,0.023193359375,-1.9765625,1.30078125,-3.765625
735933061,0.9781494140625,-0.1942138671875,-0.0712890625,0.01934814453125,-1.9765625,1.30078125,-3.765625
735937061,0.9808349609375,-0.18377685546875,-0.06298828125,0.015380859375,-1.9765625,1.30078125,-3.765625
735945061,0.98297119140625,-0.1746826171875,-0.05535888671875,0.01190185546875,-1.30078125,2.7421875,-2.82421875
735948061,0.98529052734375,-0.164306640625,-0.04620361328125,0.0079345703125,-1.30078125,2.7421875,-2.82421875
735952061,0.98773193359375,-0.15203857421875,-0.035400390625,0.00347900390625,-1.30078125,2.7421875,-2.82421875
735958061,0.98944091796875,-0.142333984375,-0.0269775390625,0.000244140625,-1.09765625,2.8046875,-0.28125
735965061,0.991455078125,-0.12939453125,-0.01629638671875,-0.00360107421875,-1.09765625,2.8046875,-0.28125
735968061,0.9927978515625,-0.11956787109375,-0.00872802734375,-0.00628662109375,-1.09765625,2.8046875,-0.28125
735972061,0.99432373046875,-0.10589599609375,0.00091552734375,-0.00970458984375,-1.09765625,2.8046875,-0.28125
735978061,0.995361328125,-0.09515380859375,0.00775146484375,-0.01220703125,-0.82421875,1.29296875,1.33203125
735985061,0.9964599609375,-0.0811767578125,0.015869140625,-0.015380859375,-0.82421875,1.29296875,1.33203125
735988061,0.9970703125,-0.0709228515625,0.02142333984375,-0.01776123046875,-0.82421875,1.29296875,1.33203125
735992061,0.99774169921875,-0.0574951171875,0.0284423828125,-0.0208740234375,-0.82421875,1.29296875,1.33203125
735996061,0.998046875,-0.0474853515625,0.0338134765625,-0.02325439453125,-0.82421875,1.29296875,1.33203125
736005061,0.9981689453125,-0.03515625,0.0408935546875,-0.02642822265625,-0.77734375,-0.1484375,-0.921875
736008061,0.9981689453125,-0.026611328125,0.0462646484375,-0.02874755859375,-0.77734375,-0.1484375,-0.921875
736012061,0.9979248046875,-0.0155029296875,0.05413818359375,-0.03192138671875,-0.77734375,-0.1484375,-0.921875
736016061,0.99755859375,-0.00811767578125,0.0599365234375,-0.0341796875,-0.77734375,-0.1484375,-0.921875
736022061,0.99700927734375,0.00103759765625,0.06787109375,-0.0372314453125,-0.94921875,-0.546875,-1.15234375
736029061,0.9964599609375,0.00738525390625,0.07373046875,-0.0394287109375,-0.36328125,-0.14453125,0.359375
736033061,0.99566650390625,0.0155029296875,0.0814208984375,-0.04241943359375,-0.36328125,-0.14453125,0.359375
736041061,0.994873046875,0.02252197265625,0.08795166015625,-0.04510498046875,-0.20703125,0.6328125,1.5625
736044061,0.994140625,0.0281982421875,0.09295654296875,-0.0472412109375,-0.20703125,0.6328125,1.5625
736047061,0.9932861328125,0.03485107421875,0.098388671875,-0.0498046875,-0.20703125,0.6328125,1.5625
736051061,0.99237060546875,0.0419921875,0.10333251953125,-0.0526123046875,-0.20703125,0.6328125,1.5625
736061061,0.9913330078125,0.050048828125,0.108154296875,-0.0557861328125,1.35546875,0.890625,2.66796875
736064061,0.99053955078125,0.05615234375,0.11114501953125,-0.05816650390625,1.35546875,0.890625,2.66796875
736068061,0.98944091796875,0.064208984375,0.1143798828125,-0.06134033203125,1.35546875,0.890625,2.66796875
736072061,0.988525390625,0.071044921875,0.11663818359375,-0.0640869140625,1.35546875,0.890625,2.66796875
736081061,0.98785400390625,0.07611083984375,0.1181640625,-0.066162109375,-0.3828125,-0.0859375,1.7890625
736085061,0.98712158203125,0.08148193359375,0.1197509765625,-0.0682373046875,-0.3828125,-0.0859375,1.7890625
736088061,0.986328125,0.08660888671875,0.1214599609375,-0.0701904296875,-0.3828125,-0.0859375,1.7890625
736092061,0.98541259765625,0.0919189453125,0.12359619140625,-0.07208251953125,-0.3828125,-0.0859375,1.7890625
736102061,0.98486328125,0.09527587890625,0.12518310546875,-0.07318115234375,0.71484375,2.0390625,1.46875
736106061,0.984130859375,0.0989990234375,0.12713623046875,-0.07415771484375,0.71484375,2.0390625,1.46875
736111061,0.98291015625,0.1055908203125,0.13067626953125,-0.07537841796875,0.71484375,2.0390625,1.46875
736118061,0.98236083984375,0.108642578125,0.132080078125,-0.0758056640625,0.21875,1.4609375,3.5078125
736125061,0.98175048828125,0.11236572265625,0.13323974609375,-0.07623291015625,0.12890625,1.44140625,3.64453125
736128061,0.9813232421875,0.11529541015625,0.1336669921875,-0.07666015625,0.12890625,1.44140625,3.64453125
736132061,0.98065185546875,0.11981201171875,0.1339111328125,-0.077392578125,0.12890625,1.44140625,3.64453125
736139061,0.980224609375,0.12322998046875,0.13385009765625,-0.078125,-0.390625,1.1953125,2.97265625
736143061,0.9794921875,0.12860107421875,0.1334228515625,-0.07928466796875,-0.390625,1.1953125,2.97265625
736146061,0.97882080078125,0.13348388671875,0.13287353515625,-0.080322265625,-0.390625,1.1953125,2.97265625
736153061,0.978271484375,0.1373291015625,0.13238525390625,-0.0810546875,-0.7734375,1.171875,2.109375
736161061,0.97747802734375,0.14306640625,0.131591796875,-0.08209228515625,0.22265625,2.0625,2.0859375
736164061,0.9769287109375,0.1468505859375,0.1312255859375,-0.08270263671875,0.22265625,2.0625,2.0859375
736167061,0.9761962890625,0.15142822265625,0.130859375,-0.0833740234375,0.22265625,2.0625,2.0859375
736171061,0.97552490234375,0.15582275390625,0.13055419921875,-0.08392333984375,0.22265625,2.0625,2.0859375
736178061,0.974853515625,0.159912109375,0.13018798828125,-0.08428955078125,-1.08203125,2.25390625,3.05859375
736185061,0.97418212890625,0.1644287109375,0.12957763671875,-0.08441162109375,-0.8984375,2.39453125,3.4140625
736188061,0.97381591796875,0.1669921875,0.129150390625,-0.084228515625,-0.8984375,2.39453125,3.4140625
736192061,0.97344970703125,0.170166015625,0.12835693359375,-0.0836181640625,-0.8984375,2.39453125,3.4140625
736199061,0.9732666015625,0.1717529296875,0.1278076171875,-0.0828857421875,-0.14453125,2.25,4.9765625
736202061,0.9732666015625,0.17303466796875,0.12701416015625,-0.08160400390625,-0.14453125,2.25,4.9765625
736208061,0.97344970703125,0.1737060546875,0.12603759765625,-0.0799560546875,-0.8125,1.7109375,5.17578125
736212061,0.97369384765625,0.17376708984375,0.124755859375,-0.07806396484375,-0.8125,1.7109375,5.17578125
736219061,0.97418212890625,0.17340087890625,0.1231689453125,-0.075927734375,-0.453125,0.74609375,5.70703125
736222061,0.97467041015625,0.1727294921875,0.1214599609375,-0.0738525390625,-0.453125,0.74609375,5.70703125
736226061,0.9752197265625,0.17193603515625,0.1195068359375,-0.0718994140625,-0.453125,0.74609375,5.70703125
736232061,0.9757080078125,0.17120361328125,0.11737060546875,-0.070068359375,-0.76171875,0.515625,5.93359375
736239061,0.9761962890625,0.170654296875,0.1151123046875,-0.06842041015625,-0.55078125,0.70703125,6.02734375
736242061,0.9765625,0.17047119140625,0.11285400390625,-0.0670166015625,-0.55078125,0.70703125,6.02734375
736246061,0.9769287109375,0.17059326171875,0.1104736328125,-0.06573486328125,-0.55078125,0.70703125,6.02734375
736252061,0.97723388671875,0.17108154296875,0.107666015625,-0.06439208984375,-1.37890625,0.61328125,5.60546875
736260061,0.9774169921875,0.1715087890625,0.1058349609375,-0.0634765625,-0.75390625,1.01953125,5.01953125
736263061,0.9776611328125,0.17205810546875,0.1036376953125,-0.0623779296875,-0.75390625,1.01953125,5.01953125
736266061,0.97784423828125,0.1724853515625,0.1016845703125,-0.06109619140625,-0.75390625,1.01953125,5.01953125
736276061,0.97808837890625,0.172607421875,0.099853515625,-0.0596923828125,-0.1796875,1.48046875,4.84375
736279061,0.9783935546875,0.1724853515625,0.0980224609375,-0.05804443359375,-0.1796875,1.48046875,4.84375
736282061,0.978759765625,0.1719970703125,0.09625244140625,-0.056396484375,-0.1796875,1.48046875,4.84375
736286061,0.97918701171875,0.17120361328125,0.09423828125,-0.05462646484375,-0.1796875,1.48046875,4.84375
736295061,0.97967529296875,0.170166015625,0.092041015625,-0.052978515625,-0.11328125,0.7421875,5.36328125
736298061,0.980224609375,0.1689453125,0.08953857421875,-0.05145263671875,-0.11328125,0.7421875,5.36328125
736301061,0.98077392578125,0.16766357421875,0.086669921875,-0.050048828125,-0.11328125,0.7421875,5.36328125
736307061,0.9813232421875,0.166259765625,0.08331298828125,-0.048828125,0.47265625,0.65234375,5.69921875
736314061,0.98199462890625,0.16473388671875,0.07916259765625,-0.04766845703125,0.47265625,0.65234375,5.69921875
736318061,0.98260498046875,0.16339111328125,0.074951171875,-0.04681396484375,0.47265625,0.65234375,5.69921875
736321061,0.98321533203125,0.1619873046875,0.0699462890625,-0.04595947265625,0.47265625,0.65234375,5.69921875
736328061,0.98382568359375,0.16064453125,0.06500244140625,-0.04522705078125,-1.78125,0.984375,3.64453125
736331061,0.98443603515625,0.15924072265625,0.05938720703125,-0.04437255859375,-1.78125,0.984375,3.64453125
736340061,0.9849853515625,0.157958984375,0.05389404296875,-0.04351806640625,-0.81640625,1.54296875,1.78125
736343061,0.98553466796875,0.15667724609375,0.048583984375,-0.04266357421875,-0.81640625,1.54296875,1.78125
