board_id,timestamp_us,qw,qi,qj,qk,ax,ay,az
1,1825059244,0.7864990234375,-0.35101318359375,-0.41229248046875,0.29705810546875,-0.16796875,2.83984375,2.28515625
1,1825063291,0.7855224609375,-0.349853515625,-0.41290283203125,0.30010986328125,-0.16796875,2.83984375,2.28515625
1,1825071245,0.7841796875,-0.3470458984375,-0.41387939453125,0.3055419921875,-0.26171875,3.12109375,2.25
1,1825079251,0.7835693359375,-0.34521484375,-0.4144287109375,0.30841064453125,-0.24609375,3.22265625,2.2578125
1,1825083294,0.78265380859375,-0.3438720703125,-0.41510009765625,0.31134033203125,-0.24609375,3.22265625,2.2578125
1,1825091245,0.78143310546875,-0.3408203125,-0.41619873046875,0.3162841796875,-0.35546875,3.16796875,1.98828125
1,1825099245,0.781005859375,-0.3388671875,-0.41668701171875,0.3187255859375,-0.37890625,3.17578125,1.875
1,1825103291,0.78033447265625,-0.33746337890625,-0.417236328125,0.32110595703125,-0.37890625,3.17578125,1.875
1,1825111245,0.7796630859375,-0.33453369140625,-0.41796875,0.3248291015625,-0.484375,3.02734375,2.07421875
1,1825119245,0.77960205078125,-0.332763671875,-0.418212890625,0.32647705078125,-0.5078125,2.890625,2.2578125
1,1825123293,0.77935791015625,-0.33154296875,-0.41845703125,0.3280029296875,-0.5078125,2.890625,2.2578125
1,1825131248,0.779541015625,-0.32904052734375,-0.41845703125,0.33013916015625,-0.44921875,2.66015625,2.6328125
1,1825139245,0.7799072265625,-0.3275146484375,-0.4183349609375,0.3309326171875,-0.50390625,2.58203125,2.73046875
1,1825143289,0.780029296875,-0.3265380859375,-0.418212890625,0.3316650390625,-0.50390625,2.58203125,2.73046875
1,1825151245,0.78070068359375,-0.3243408203125,-0.41790771484375,0.33270263671875,-0.51171875,2.6953125,2.8671875
1,1825159276,0.7811279296875,-0.322998046875,-0.417724609375,0.33319091796875,-0.6328125,2.7734375,2.38671875
1,1825163290,0.78118896484375,-0.32208251953125,-0.417724609375,0.3338623046875,-0.6328125,2.7734375,2.38671875
1,1825171245,0.7813720703125,-0.32000732421875,-0.4178466796875,0.33526611328125,-0.9375,3.26953125,1.44140625
1,1825179245,0.78143310546875,-0.3187255859375,-0.41796875,0.3363037109375,-1.03125,3.31640625,1.16796875
1,1825186245,0.78131103515625,-0.31732177734375,-0.41815185546875,0.337646484375,-1.078125,3.26953125,1.2734375
1,1825189291,0.7808837890625,-0.31634521484375,-0.41845703125,0.339111328125,-1.078125,3.26953125,1.2734375
1,1825193300,0.78045654296875,-0.3154296875,-0.41876220703125,0.3406982421875,-1.078125,3.26953125,1.2734375
1,1825197291,0.7799072265625,-0.3143310546875,-0.41900634765625,0.342529296875,-1.078125,3.26953125,1.2734375
1,1825203245,0.78082275390625,-0.3109130859375,-0.41864013671875,0.34405517578125,-1.078125,2.77734375,1.79296875
1,1825211291,0.78033447265625,-0.30950927734375,-0.418701171875,0.34637451171875,-1.078125,2.77734375,1.79296875
1,1825214291,0.77996826171875,-0.3082275390625,-0.418701171875,0.34832763671875,-1.078125,2.77734375,1.79296875
1,1825218298,0.77947998046875,-0.30645751953125,-0.41876220703125,0.3509521484375,-1.078125,2.77734375,1.79296875
1,1825228245,0.7801513671875,-0.30230712890625,-0.41845703125,0.35333251953125,-1.29296875,3.0234375,1.78515625
1,1825232293,0.7791748046875,-0.2978515625,-0.4189453125,0.35882568359375,-1.29296875,3.0234375,1.78515625
1,1825236290,0.77862548828125,-0.29571533203125,-0.41925048828125,0.36126708984375,-1.29296875,3.0234375,1.78515625
1,1825246245,0.7789306640625,-0.2906494140625,-0.41943359375,0.364501953125,-1.39453125,3.33984375,1.65625
1,1825249292,0.7783203125,-0.28826904296875,-0.419921875,0.36712646484375,-1.39453125,3.33984375,1.65625
1,1825253291,0.77752685546875,-0.28521728515625,-0.42047119140625,0.37054443359375,-1.39453125,3.33984375,1.65625
1,1825257291,0.77685546875,-0.282470703125,-0.4208984375,0.3736572265625,-1.39453125,3.33984375,1.65625
1,1825264245,0.77716064453125,-0.2784423828125,-0.42083740234375,0.37603759765625,-1.1875,3.8203125,1.93359375
1,1825268291,0.77642822265625,-0.275634765625,-0.4210205078125,0.37933349609375,-1.1875,3.8203125,1.93359375
1,1825272291,0.77587890625,-0.273193359375,-0.4210205078125,0.38226318359375,-1.1875,3.8203125,1.93359375
1,1825276297,0.775390625,-0.27130126953125,-0.42095947265625,0.3846435546875,-1.1875,3.8203125,1.93359375
1,1825282243,0.775634765625,-0.26708984375,-0.42047119140625,0.38763427734375,-1.21484375,3.89453125,2.0
1,1825289245,0.7760009765625,-0.263671875,-0.4200439453125,0.3897705078125,-1.4609375,3.60546875,1.9609375
1,1825293289,0.7755126953125,-0.26129150390625,-0.419677734375,0.39263916015625,-1.4609375,3.60546875,1.9609375
1,1825300245,0.77581787109375,-0.25762939453125,-0.4190673828125,0.39501953125,-1.703125,3.46484375,2.0234375
1,1825303289,0.7755126953125,-0.25592041015625,-0.4188232421875,0.39703369140625,-1.703125,3.46484375,2.0234375
1,1825311245,0.77545166015625,-0.2503662109375,-0.41815185546875,0.40142822265625,-1.84375,3.41015625,2.0546875
1,1825318250,0.775634765625,-0.24688720703125,-0.4178466796875,0.4034423828125,-2.10546875,3.43359375,2.15234375
1,1825322283,0.775146484375,-0.24444580078125,-0.41778564453125,0.40594482421875,-2.10546875,3.43359375,2.15234375
1,1825329252,0.77532958984375,-0.241455078125,-0.4176025390625,0.4075927734375,-2.12109375,3.62890625,2.7265625
1,1825333287,0.7747802734375,-0.23919677734375,-0.41766357421875,0.409912109375,-2.12109375,3.62890625,2.7265625
1,1825341251,0.77471923828125,-0.23602294921875,-0.4176025390625,0.4119873046875,-2.37890625,3.66015625,3.2265625
1,1825344291,0.774169921875,-0.2344970703125,-0.41766357421875,0.41375732421875,-2.37890625,3.66015625,3.2265625
1,1825348291,0.77349853515625,-0.23272705078125,-0.41778564453125,0.41595458984375,-2.37890625,3.66015625,3.2265625
1,1825355245,0.7730712890625,-0.2294921875,-0.417724609375,0.41864013671875,-2.58984375,4.109375,3.76171875
1,1825358291,0.77227783203125,-0.22802734375,-0.4178466796875,0.42071533203125,-2.58984375,4.109375,3.76171875
1,1825365245,0.771484375,-0.224609375,-0.4178466796875,0.42401123046875,-2.55859375,4.66015625,3.6171875
1,1825368291,0.7705078125,-0.2230224609375,-0.41802978515625,0.42645263671875,-2.55859375,4.66015625,3.6171875
1,1825372291,0.76885986328125,-0.22052001953125,-0.41827392578125,0.43035888671875,-2.55859375,4.66015625,3.6171875
1,1825376291,0.76763916015625,-0.21856689453125,-0.41851806640625,0.43341064453125,-2.55859375,4.66015625,3.6171875
1,1825383245,0.76641845703125,-0.215087890625,-0.4185791015625,0.4371337890625,-2.62890625,5.47265625,3.3046875
1,1825390245,0.7647705078125,-0.21099853515625,-0.41876220703125,0.44183349609375,-2.63671875,5.43359375,3.171875
1,1825396291,0.7633056640625,-0.20880126953125,-0.41888427734375,0.4453125,-2.63671875,5.43359375,3.171875
1,1825400293,0.76141357421875,-0.205810546875,-0.4189453125,0.44989013671875,-2.63671875,5.43359375,3.171875
1,1825403289,0.759521484375,-0.202880859375,-0.41888427734375,0.45440673828125,-2.63671875,5.43359375,3.171875
1,1825407295,0.75726318359375,-0.19921875,-0.418701171875,0.4599609375,-2.63671875,5.43359375,3.171875
1,1825411292,0.75579833984375,-0.19683837890625,-0.41845703125,0.46356201171875,-2.63671875,5.43359375,3.171875
1,1825420256,0.75439453125,-0.19287109375,-0.417724609375,0.4681396484375,-3.47265625,4.94140625,2.73046875
1,1825423289,0.7528076171875,-0.19012451171875,-0.4168701171875,0.47259521484375,-3.47265625,4.94140625,2.73046875
1,1825427289,0.7513427734375,-0.1875,-0.415771484375,0.47686767578125,-3.47265625,4.94140625,2.73046875
1,1825431291,0.75,-0.18505859375,-0.4144287109375,0.481201171875,-3.47265625,4.94140625,2.73046875
1,1825441248,0.74920654296875,-0.1820068359375,-0.4127197265625,0.48504638671875,-3.67578125,4.9609375,3.6875
1,1825444289,0.74822998046875,-0.18011474609375,-0.41082763671875,0.48876953125,-3.67578125,4.9609375,3.6875
1,1825448289,0.7474365234375,-0.178466796875,-0.4088134765625,0.4923095703125,-3.67578125,4.9609375,3.6875
1,1825452297,0.74676513671875,-0.1768798828125,-0.40667724609375,0.49560546875,-3.67578125,4.9609375,3.6875
1,1825458245,0.7464599609375,-0.174560546875,-0.40435791015625,0.498779296875,-3.64453125,5.01953125,3.39453125
1,1825465245,0.74627685546875,-0.17230224609375,-0.40216064453125,0.50164794921875,-3.65625,4.97265625,3.25
1,1825468291,0.745849609375,-0.17083740234375,-0.4000244140625,0.5045166015625,-3.65625,4.97265625,3.25
1,1825472290,0.7454833984375,-0.1693115234375,-0.39801025390625,0.507080078125,-3.65625,4.97265625,3.25
1,1825479262,0.74542236328125,-0.16693115234375,-0.3961181640625,0.50946044921875,-3.75,4.65234375,2.93359375
1,1825482291,0.74517822265625,-0.165283203125,-0.39447021484375,0.51171875,-3.75,4.65234375,2.93359375
1,1825488245,0.74517822265625,-0.16265869140625,-0.39276123046875,0.5137939453125,-3.734375,4.3671875,3.0859375
1,1825492291,0.74505615234375,-0.16082763671875,-0.39129638671875,0.51568603515625,-3.734375,4.3671875,3.0859375
1,1825500245,0.7452392578125,-0.15814208984375,-0.3897705078125,0.51739501953125,-3.734375,4.17578125,3.4453125
1,1825503291,0.74530029296875,-0.1563720703125,-0.388427734375,0.51885986328125,-3.734375,4.17578125,3.4453125
1,1825506291,0.74542236328125,-0.154541015625,-0.386962890625,0.52032470703125,-3.734375,4.17578125,3.4453125
1,1825513245,0.745849609375,-0.152099609375,-0.385498046875,0.52154541015625,-3.83984375,3.90234375,3.31640625
1,1825517294,0.74609375,-0.1505126953125,-0.384033203125,0.522705078125,-3.83984375,3.90234375,3.31640625
1,1825524245,0.74652099609375,-0.14825439453125,-0.38250732421875,0.5238037109375,-3.87109375,4.29296875,3.30859375
1,1825528291,0.74676513671875,-0.1468505859375,-0.38116455078125,0.52484130859375,-3.87109375,4.29296875,3.30859375
1,1825532297,0.74700927734375,-0.14532470703125,-0.3797607421875,0.5260009765625,-3.87109375,4.29296875,3.30859375
1,1825539245,0.74786376953125,-0.14154052734375,-0.378173828125,0.52691650390625,-3.47265625,5.01953125,3.61328125
1,1825542291,0.74798583984375,-0.14019775390625,-0.37689208984375,0.52801513671875,-3.47265625,5.01953125,3.61328125
1,1825546298,0.748046875,-0.13873291015625,-0.37548828125,0.52935791015625,-3.47265625,5.01953125,3.61328125
1,1825553245,0.74859619140625,-0.13525390625,-0.37408447265625,0.53045654296875,-3.2265625,5.1171875,3.71875
1,1825557340,0.7484130859375,-0.1337890625,-0.372802734375,0.531982421875,-3.2265625,5.1171875,3.71875
1,1825564245,0.7486572265625,-0.13031005859375,-0.37127685546875,0.53350830078125,-3.265625,4.9609375,4.046875
1,1825567290,0.748291015625,-0.12884521484375,-0.37005615234375,0.5352783203125,-3.265625,4.9609375,4.046875
1,1825571293,0.74774169921875,-0.12713623046875,-0.36871337890625,0.537353515625,-3.265625,4.9609375,4.046875
1,1825578248,0.74761962890625,-0.12384033203125,-0.3673095703125,0.539306640625,-3.51953125,4.84375,3.71875
1,1825582289,0.746826171875,-0.12213134765625,-0.3658447265625,0.541748046875,-3.51953125,4.84375,3.71875
1,1825585289,0.7459716796875,-0.12054443359375,-0.3643798828125,0.5443115234375,-3.51953125,4.84375,3.71875
1,1825592245,0.74542236328125,-0.117431640625,-0.36279296875,0.5467529296875,-3.78515625,4.72265625,3.28125
1,1825600245,0.74481201171875,-0.114501953125,-0.361083984375,0.54931640625,-4.09375,4.63671875,2.84375
1,1825603289,0.74383544921875,-0.11322021484375,-0.35955810546875,0.55194091796875,-4.09375,4.63671875,2.84375
1,1825607293,0.7427978515625,-0.1121826171875,-0.3580322265625,0.5545654296875,-4.09375,4.63671875,2.84375
1,1825611291,0.74176025390625,-0.11126708984375,-0.3563232421875,0.55718994140625,-4.09375,4.63671875,2.84375
1,1825620245,0.74127197265625,-0.10931396484375,-0.35467529296875,0.55926513671875,-4.453125,4.3125,2.890625
1,1825623291,0.740478515625,-0.10882568359375,-0.352783203125,0.56158447265625,-4.453125,4.3125,2.890625
1,1825626288,0.73980712890625,-0.1085205078125,-0.350830078125,0.563720703125,-4.453125,4.3125,2.890625
1,1825637245,0.73974609375,-0.10711669921875,-0.3487548828125,0.5654296875,-4.56640625,4.03515625,2.7734375
1,1825641290,0.73931884765625,-0.10699462890625,-0.34442138671875,0.56866455078125,-4.56640625,4.03515625,2.7734375
1,1825647245,0.73956298828125,-0.1058349609375,-0.34234619140625,0.56976318359375,-4.51171875,3.8515625,2.8046875
1,1825654295,0.73968505859375,-0.1058349609375,-0.34014892578125,0.5709228515625,-4.51171875,3.8515625,2.8046875
1,1825657291,0.7398681640625,-0.10577392578125,-0.3382568359375,0.57177734375,-4.51171875,3.8515625,2.8046875
1,1825661291,0.740234375,-0.10565185546875,-0.33612060546875,0.57269287109375,-4.51171875,3.8515625,2.8046875
1,1825667245,0.74078369140625,-0.1044921875,-0.3343505859375,0.5732421875,-4.36328125,3.78125,2.77734375
1,1825671291,0.74114990234375,-0.104248046875,-0.33245849609375,0.5738525390625,-4.36328125,3.78125,2.77734375
1,1825678248,0.74169921875,-0.10302734375,-0.33087158203125,0.57421875,-4.2421875,3.765625,2.6953125
1,1825682289,0.7420654296875,-0.102783203125,-0.32928466796875,0.57476806640625,-4.2421875,3.765625,2.6953125
1,1825690245,0.74285888671875,-0.10113525390625,-0.32672119140625,0.57550048828125,-4.24609375,3.78515625,2.5078125
1,1825698245,0.74322509765625,-0.099853515625,-0.32550048828125,0.575927734375,-4.21484375,3.78515625,2.44140625
1,1825702291,0.743408203125,-0.09942626953125,-0.324462890625,0.576416015625,-4.21484375,3.78515625,2.44140625
1,1825710245,0.74365234375,-0.09771728515625,-0.32257080078125,0.57733154296875,-4.15625,3.72265625,2.37109375
1,1825718245,0.74383544921875,-0.096435546875,-0.3216552734375,0.577880859375,-4.17578125,3.64453125,2.27734375
1,1825722333,0.74371337890625,-0.09600830078125,-0.32086181640625,0.57855224609375,-4.17578125,3.64453125,2.27734375
1,1825730248,0.74365234375,-0.094482421875,-0.31939697265625,0.57965087890625,-4.30859375,3.53125,2.15625
1,1825738249,0.74365234375,-0.09326171875,-0.318603515625,0.58026123046875,-4.375,3.453125,2.015625
1,1825742294,0.74346923828125,-0.0927734375,-0.3179931640625,0.5809326171875,-4.375,3.453125,2.015625
1,1825750245,0.7432861328125,-0.09112548828125,-0.31689453125,0.58209228515625,-4.28515625,3.3359375,1.89453125
1,1825758245,0.7432861328125,-0.0899658203125,-0.3162841796875,0.58258056640625,-4.27734375,3.3046875,1.92578125
1,1825762293,0.74310302734375,-0.0894775390625,-0.3157958984375,0.5831298828125,-4.27734375,3.3046875,1.92578125
1,1825770245,0.7430419921875,-0.0880126953125,-0.31488037109375,0.583984375,-4.23046875,3.2265625,2.109375
1,1825778245,0.74310302734375,-0.08709716796875,-0.3143310546875,0.58428955078125,-4.23046875,3.1953125,2.0234375
1,1825782291,0.7431640625,-0.0867919921875,-0.3138427734375,0.58453369140625,-4.23046875,3.1953125,2.0234375
1,1825790245,0.74346923828125,-0.0858154296875,-0.3128662109375,0.5848388671875,-4.20703125,3.2734375,2.125
1,1825798248,0.74371337890625,-0.08514404296875,-0.31231689453125,0.58489990234375,-4.16015625,3.203125,2.0703125
1,1825802293,0.743896484375,-0.08502197265625,-0.31182861328125,0.58489990234375,-4.16015625,3.203125,2.0703125
1,1825810245,0.74444580078125,-0.084228515625,-0.31097412109375,0.5848388671875,-4.09765625,3.09375,2.0546875
1,1825817245,0.7447509765625,-0.08355712890625,-0.31048583984375,0.584716796875,-4.04296875,3.0546875,2.046875
1,1825824245,0.7451171875,-0.08282470703125,-0.30999755859375,0.5845947265625,-4.03515625,2.97265625,2.0
1,1825827291,0.74530029296875,-0.08270263671875,-0.30975341796875,0.58453369140625,-4.03515625,2.97265625,2.0
1,1825830291,0.74554443359375,-0.08258056640625,-0.30938720703125,0.58447265625,-4.03515625,2.97265625,2.0
1,1825837245,0.745849609375,-0.08197021484375,-0.30902099609375,0.58441162109375,-4.00390625,2.7578125,2.0625
1,1825844251,0.7464599609375,-0.08013916015625,-0.30828857421875,0.584228515625,-4.08203125,2.671875,1.9375
1,1825847291,0.74658203125,-0.08013916015625,-0.3079833984375,0.584228515625,-4.08203125,2.671875,1.9375
1,1825851291,0.746826171875,-0.08013916015625,-0.30755615234375,0.58416748046875,-4.08203125,2.671875,1.9375
1,1825856291,0.7469482421875,-0.0802001953125,-0.30718994140625,0.58416748046875,-4.08203125,2.671875,1.9375
1,1825861245,0.7474365234375,-0.07879638671875,-0.30645751953125,0.5841064453125,-4.234375,2.33984375,1.984375
1,1825868245,0.7479248046875,-0.0775146484375,-0.3057861328125,0.58404541015625,-4.33203125,2.21875,1.96875
1,1825872292,0.74810791015625,-0.07769775390625,-0.3052978515625,0.58404541015625,-4.33203125,2.21875,1.96875
1,1825875295,0.748291015625,-0.07794189453125,-0.30487060546875,0.583984375,-4.33203125,2.21875,1.96875
1,1825882245,0.74871826171875,-0.0767822265625,-0.3043212890625,0.58392333984375,-4.37890625,2.171875,2.02734375
1,1825890245,0.7491455078125,-0.0758056640625,-0.3037109375,0.58380126953125,-4.32421875,2.28515625,2.01171875
1,1825893291,0.749267578125,-0.0760498046875,-0.30352783203125,0.58367919921875,-4.32421875,2.28515625,2.01171875
1,1825896291,0.74945068359375,-0.0762939453125,-0.3033447265625,0.58355712890625,-4.32421875,2.28515625,2.01171875
1,1825903245,0.74981689453125,-0.07525634765625,-0.30303955078125,0.5833740234375,-4.21875,2.484375,2.1875
1,1825907289,0.74993896484375,-0.075439453125,-0.30303955078125,0.5831298828125,-4.21875,2.484375,2.1875
1,1825911289,0.75006103515625,-0.0755615234375,-0.30316162109375,0.5828857421875,-4.21875,2.484375,2.1875
1,1825915289,0.75018310546875,-0.07562255859375,-0.3033447265625,0.58270263671875,-4.21875,2.484375,2.1875
1,1825921245,0.75048828125,-0.0745849609375,-0.303466796875,0.58233642578125,-4.1875,2.484375,2.05078125
1,1825928245,0.75079345703125,-0.07354736328125,-0.30352783203125,0.58209228515625,-4.1796875,2.58203125,2.05859375
1,1825932289,0.7508544921875,-0.073486328125,-0.303955078125,0.581787109375,-4.1796875,2.58203125,2.05859375
1,1825940245,0.7510986328125,-0.0723876953125,-0.30419921875,0.58148193359375,-4.21484375,2.4609375,2.05078125
1,1825943294,0.7510986328125,-0.072265625,-0.30450439453125,0.581298828125,-4.21484375,2.4609375,2.05078125
1,1825947342,0.75103759765625,-0.0721435546875,-0.304931640625,0.5811767578125,-4.21484375,2.4609375,2.05078125
1,1825954255,0.751220703125,-0.071044921875,-0.30511474609375,0.58099365234375,-4.29296875,2.421875,1.96484375
1,1825957289,0.75115966796875,-0.0709228515625,-0.30535888671875,0.5809326171875,-4.29296875,2.421875,1.96484375
1,1825964250,0.75128173828125,-0.06988525390625,-0.305419921875,0.580810546875,-4.25390625,2.3359375,2.00390625
1,1825967289,0.751220703125,-0.06976318359375,-0.30560302734375,0.58087158203125,-4.25390625,2.3359375,2.00390625
1,1825971291,0.75115966796875,-0.069580078125,-0.3057861328125,0.5809326171875,-4.25390625,2.3359375,2.00390625
1,1825975291,0.75103759765625,-0.0694580078125,-0.30584716796875,0.58099365234375,-4.25390625,2.3359375,2.00390625
1,1825981245,0.75115966796875,-0.06842041015625,-0.30572509765625,0.5810546875,-4.1640625,2.26171875,2.11328125
1,1825988245,0.75128173828125,-0.0675048828125,-0.3055419921875,0.58111572265625,-4.19921875,2.25390625,2.2265625
1,1825992291,0.751220703125,-0.0672607421875,-0.30548095703125,0.58123779296875,-4.19921875,2.25390625,2.2265625
1,1826000245,0.75128173828125,-0.06634521484375,-0.30517578125,0.58135986328125,-4.1171875,2.19140625,2.296875
1,1826003297,0.75128173828125,-0.066162109375,-0.3050537109375,0.58154296875,-4.1171875,2.19140625,2.296875
1,1826006291,0.751220703125,-0.06597900390625,-0.30487060546875,0.58172607421875,-4.1171875,2.19140625,2.296875
1,1826010291,0.75115966796875,-0.06585693359375,-0.3046875,0.5819091796875,-4.1171875,2.19140625,2.296875
1,1826016245,0.751220703125,-0.06500244140625,-0.3043212890625,0.58209228515625,-4.16015625,2.14453125,2.32421875
1,1826023245,0.75128173828125,-0.06414794921875,-0.30389404296875,0.58233642578125,-4.23828125,2.16796875,2.35546875
1,1826027289,0.7510986328125,-0.06396484375,-0.30364990234375,0.58270263671875,-4.23828125,2.16796875,2.35546875
1,1826031288,0.7509765625,-0.06378173828125,-0.30352783203125,0.58294677734375,-4.23828125,2.16796875,2.35546875
1,1826035289,0.75079345703125,-0.0635986328125,-0.3033447265625,0.583251953125,-4.23828125,2.16796875,2.35546875
1,1826042253,0.75079345703125,-0.06280517578125,-0.3031005859375,0.58355712890625,-4.28515625,2.08203125,2.37890625
1,1826046297,0.75054931640625,-0.06256103515625,-0.30303955078125,0.58392333984375,-4.28515625,2.08203125,2.37890625
1,1826050366,0.7503662109375,-0.06243896484375,-0.302978515625,0.58416748046875,-4.28515625,2.08203125,2.37890625
1,1826057245,0.75030517578125,-0.0616455078125,-0.30279541015625,0.58441162109375,-4.34375,2.05859375,2.21875
1,1826064245,0.750244140625,-0.06085205078125,-0.30267333984375,0.58465576171875,-4.421875,2.125,2.2578125
1,1826067291,0.75,-0.06060791015625,-0.302734375,0.58489990234375,-4.421875,2.125,2.2578125
1,1826071291,0.7498779296875,-0.06036376953125,-0.3028564453125,0.58514404296875,-4.421875,2.125,2.2578125
1,1826078245,0.74981689453125,-0.0595703125,-0.30279541015625,0.58526611328125,-4.29296875,2.09375,2.28515625
1,1826082291,0.74969482421875,-0.05926513671875,-0.3028564453125,0.58544921875,-4.29296875,2.09375,2.28515625
1,1826085291,0.74957275390625,-0.05902099609375,-0.30291748046875,0.5855712890625,-4.29296875,2.09375,2.28515625
1,1826091245,0.7496337890625,-0.0582275390625,-0.302734375,0.58563232421875,-4.24609375,2.1015625,2.36328125
1,1826099245,0.749755859375,-0.05743408203125,-0.30255126953125,0.585693359375,-4.16796875,2.171875,2.31640625
1,1826102290,0.749755859375,-0.05712890625,-0.302490234375,0.58575439453125,-4.16796875,2.171875,2.31640625
1,1826105302,0.749755859375,-0.0567626953125,-0.3023681640625,0.58587646484375,-4.16796875,2.171875,2.31640625
1,1826112252,0.7498779296875,-0.055908203125,-0.30206298828125,0.5859375,-4.14453125,2.1171875,2.33984375
1,1826116305,0.7498779296875,-0.05548095703125,-0.3018798828125,0.5860595703125,-4.14453125,2.1171875,2.33984375
1,1826123249,0.75,-0.0545654296875,-0.301513671875,0.586181640625,-4.18359375,2.16796875,2.2265625
1,1826126290,0.75,-0.05413818359375,-0.30133056640625,0.5863037109375,-4.18359375,2.16796875,2.2265625
1,1826130289,0.75,-0.0537109375,-0.301025390625,0.58648681640625,-4.18359375,2.16796875,2.2265625
1,1826137245,0.7501220703125,-0.05279541015625,-0.30059814453125,0.586669921875,-4.3125,2.12109375,2.0625
1,1826144245,0.75018310546875,-0.05194091796875,-0.3001708984375,0.5869140625,-4.265625,2.08984375,2.0546875
1,1826147293,0.7501220703125,-0.05157470703125,-0.29986572265625,0.587158203125,-4.265625,2.08984375,2.0546875
1,1826151295,0.75006103515625,-0.05120849609375,-0.29949951171875,0.58740234375,-4.265625,2.08984375,2.0546875
1,1826158245,0.7501220703125,-0.0504150390625,-0.2989501953125,0.58770751953125,-4.328125,2.06640625,2.046875
1,1826161293,0.75006103515625,-0.05010986328125,-0.298583984375,0.58795166015625,-4.328125,2.06640625,2.046875
1,1826165291,0.75006103515625,-0.0498046875,-0.298095703125,0.5882568359375,-4.328125,2.06640625,2.046875
1,1826172245,0.75048828125,-0.0474853515625,-0.29681396484375,0.58856201171875,-4.3046875,2.09765625,2.0703125
1,1826180245,0.75091552734375,-0.04534912109375,-0.29571533203125,0.5887451171875,-4.2734375,2.05859375,2.015625
1,1826183290,0.7509765625,-0.044921875,-0.2950439453125,0.58905029296875,-4.2734375,2.05859375,2.015625
1,1826186302,0.7509765625,-0.04443359375,-0.29437255859375,0.58941650390625,-4.2734375,2.05859375,2.015625
1,1826190296,0.75103759765625,-0.04388427734375,-0.2935791015625,0.58978271484375,-4.2734375,2.05859375,2.015625
1,1826197253,0.75140380859375,-0.04168701171875,-0.292236328125,0.590087890625,-4.2421875,1.7734375,1.97265625
1,1826201293,0.75146484375,-0.041015625,-0.2913818359375,0.59051513671875,-4.2421875,1.7734375,1.97265625
1,1826205291,0.75146484375,-0.040283203125,-0.29046630859375,0.59100341796875,-4.2421875,1.7734375,1.97265625
1,1826211245,0.75177001953125,-0.0380859375,-0.28912353515625,0.5914306640625,-4.234375,1.48828125,1.71875
1,1826215293,0.75177001953125,-0.0372314453125,-0.2882080078125,0.5919189453125,-4.234375,1.48828125,1.71875
1,1826222245,0.7520751953125,-0.03497314453125,-0.28680419921875,0.59234619140625,-4.30078125,1.45703125,1.59375
1,1826226291,0.7520751953125,-0.03399658203125,-0.28582763671875,0.5928955078125,-4.30078125,1.45703125,1.59375
1,1826230291,0.7520751953125,-0.03302001953125,-0.284912109375,0.5933837890625,-4.30078125,1.45703125,1.59375
1,1826237245,0.75238037109375,-0.03082275390625,-0.283447265625,0.59381103515625,-4.27734375,1.33203125,1.5859375
1,1826241291,0.75244140625,-0.02984619140625,-0.28240966796875,0.59423828125,-4.27734375,1.33203125,1.5859375
1,1826244291,0.7525634765625,-0.02886962890625,-0.2813720703125,0.5947265625,-4.27734375,1.33203125,1.5859375
1,1826253245,0.75286865234375,-0.0267333984375,-0.27978515625,0.5950927734375,-4.27734375,1.1796875,1.76953125
1,1826256289,0.7530517578125,-0.02581787109375,-0.2786865234375,0.595458984375,-4.27734375,1.1796875,1.76953125
1,1826261293,0.75323486328125,-0.02484130859375,-0.2774658203125,0.5958251953125,-4.27734375,1.1796875,1.76953125
1,1826266253,0.753662109375,-0.0228271484375,-0.27581787109375,0.59613037109375,-4.30859375,1.0546875,1.984375
1,1826272289,0.75390625,-0.0218505859375,-0.27459716796875,0.59649658203125,-4.30859375,1.0546875,1.984375
1,1826276298,0.75408935546875,-0.02093505859375,-0.27349853515625,0.59674072265625,-4.30859375,1.0546875,1.984375
1,1826280292,0.7542724609375,-0.0198974609375,-0.2723388671875,0.59710693359375,-4.30859375,1.0546875,1.984375
1,1826289245,0.754638671875,-0.017822265625,-0.2708740234375,0.59735107421875,-4.3359375,0.953125,1.73828125
1,1826293291,0.7547607421875,-0.01678466796875,-0.2698974609375,0.59771728515625,-4.3359375,0.953125,1.73828125
1,1826296291,0.75482177734375,-0.01568603515625,-0.26898193359375,0.5980224609375,-4.3359375,0.953125,1.73828125
1,1826300291,0.7548828125,-0.01446533203125,-0.26800537109375,0.59844970703125,-4.3359375,0.953125,1.73828125
1,1826306245,0.75506591796875,-0.012451171875,-0.266845703125,0.5987548828125,-4.3671875,0.734375,1.6171875
1,1826310291,0.7550048828125,-0.01123046875,-0.2659912109375,0.5992431640625,-4.3671875,0.734375,1.6171875
1,1826317245,0.75518798828125,-0.00921630859375,-0.26483154296875,0.59954833984375,-4.4375,0.7421875,1.578125
1,1826321291,0.755126953125,-0.00787353515625,-0.26397705078125,0.60003662109375,-4.4375,0.7421875,1.578125
1,1826329245,0.755126953125,-0.00445556640625,-0.261962890625,0.6009521484375,-4.3515625,1.26171875,2.11328125
1,1826337245,0.75518798828125,-0.00225830078125,-0.26068115234375,0.6014404296875,-4.23046875,1.3515625,2.28515625
1,1826341293,0.75506591796875,-0.000732421875,-0.25958251953125,0.60205078125,-4.23046875,1.3515625,2.28515625
1,1826349260,0.7548828125,0.00299072265625,-0.25689697265625,0.60345458984375,-4.09765625,1.43359375,2.359375
1,1826357259,0.75469970703125,0.0054931640625,-0.255126953125,0.6043701171875,-4.19921875,1.328125,2.25390625
1,1826361300,0.7542724609375,0.00738525390625,-0.25360107421875,0.60552978515625,-4.19921875,1.328125,2.25390625
1,1826369245,0.7532958984375,0.01202392578125,-0.250244140625,0.60809326171875,-4.265625,0.98046875,1.984375
1,1826377245,0.752685546875,0.01507568359375,-0.24810791015625,0.60968017578125,-4.296875,0.703125,2.0078125
1,1826381289,0.751708984375,0.01763916015625,-0.2462158203125,0.611572265625,-4.296875,0.703125,2.0078125
1,1826389245,0.74981689453125,0.023193359375,-0.2421875,0.61529541015625,-4.296875,0.37890625,2.1015625
1,1826397245,0.74871826171875,0.02655029296875,-0.23968505859375,0.617431640625,-4.41015625,0.25390625,2.24609375
1,1826401291,0.7474365234375,0.02923583984375,-0.23736572265625,0.61981201171875,-4.41015625,0.25390625,2.24609375
1,1826409245,0.7451171875,0.03460693359375,-0.23260498046875,0.62408447265625,-4.6015625,0.078125,2.1484375
1,1826416245,0.74395751953125,0.0377197265625,-0.229736328125,0.6263427734375,-4.7109375,0.05859375,2.0546875
1,1826420290,0.74261474609375,0.04022216796875,-0.2269287109375,0.62884521484375,-4.7109375,0.05859375,2.0546875
1,1826427245,0.7415771484375,0.04278564453125,-0.22442626953125,0.6307373046875,-4.75,0.11328125,1.96484375
1,1826431290,0.74029541015625,0.045166015625,-0.22161865234375,0.63311767578125,-4.75,0.11328125,1.96484375
1,1826435299,0.7391357421875,0.0472412109375,-0.218994140625,0.63519287109375,-4.75,0.11328125,1.96484375
1,1826439294,0.73822021484375,0.04901123046875,-0.216796875,0.63690185546875,-4.75,0.11328125,1.96484375
1,1826449245,0.7371826171875,0.05181884765625,-0.21380615234375,0.638916015625,-4.48828125,0.19140625,2.04296875
1,1826452288,0.736328125,0.05364990234375,-0.211669921875,0.64044189453125,-4.48828125,0.19140625,2.04296875
1,1826456284,0.73541259765625,0.05584716796875,-0.20916748046875,0.64208984375,-4.48828125,0.19140625,2.04296875
1,1826466263,0.73480224609375,0.058349609375,-0.206787109375,0.64337158203125,-4.578125,-0.015625,2.15625
1,1826470291,0.733642578125,0.0623779296875,-0.20263671875,0.6456298828125,-4.578125,-0.015625,2.15625
1,1826477245,0.7332763671875,0.064697265625,-0.20068359375,0.6463623046875,-4.69921875,-0.50390625,1.921875
1,1826484291,0.73297119140625,0.066650390625,-0.19873046875,0.64715576171875,-4.69921875,-0.50390625,1.921875
1,1826488291,0.73272705078125,0.06854248046875,-0.19683837890625,0.6478271484375,-4.69921875,-0.50390625,1.921875
1,1826491290,0.7325439453125,0.0704345703125,-0.19488525390625,0.6484375,-4.69921875,-0.50390625,1.921875
1,1826495302,0.732421875,0.07232666015625,-0.19281005859375,0.64898681640625,-4.69921875,-0.50390625,1.921875
1,1826499288,0.73236083984375,0.07366943359375,-0.1912841796875,0.6492919921875,-4.69921875,-0.50390625,1.921875
1,1826505251,0.732666015625,0.07794189453125,-0.1878662109375,0.64947509765625,-4.83984375,-0.9140625,2.08984375
1,1826512249,0.73297119140625,0.08148193359375,-0.18499755859375,0.64947509765625,-4.72265625,-1.06640625,1.984375
1,1826515287,0.733154296875,0.08245849609375,-0.1832275390625,0.64971923828125,-4.72265625,-1.06640625,1.984375
1,1826519291,0.7333984375,0.08331298828125,-0.181396484375,0.64984130859375,-4.72265625,-1.06640625,1.984375
1,1826526245,0.73388671875,0.0863037109375,-0.17840576171875,0.64971923828125,-4.72265625,-1.17578125,1.875
1,1826530289,0.73419189453125,0.0870361328125,-0.17645263671875,0.64984130859375,-4.72265625,-1.17578125,1.875
1,1826534293,0.73443603515625,0.0875244140625,-0.175048828125,0.64984130859375,-4.72265625,-1.17578125,1.875
1,1826542245,0.73492431640625,0.09039306640625,-0.17218017578125,0.649658203125,-4.56640625,-1.35546875,1.83984375
1,1826546293,0.7352294921875,0.09100341796875,-0.17071533203125,0.649658203125,-4.56640625,-1.35546875,1.83984375
1,1826552245,0.735595703125,0.0936279296875,-0.168212890625,0.64947509765625,-4.41796875,-1.48046875,1.953125
1,1826555295,0.73577880859375,0.09417724609375,-0.1671142578125,0.64947509765625,-4.41796875,-1.48046875,1.953125
1,1826562245,0.73602294921875,0.09674072265625,-0.16485595703125,0.64935302734375,-4.40234375,-1.37890625,2.10546875
1,1826566292,0.73614501953125,0.09759521484375,-0.1634521484375,0.6495361328125,-4.40234375,-1.37890625,2.10546875
1,1826570289,0.73614501953125,0.098388671875,-0.1622314453125,0.64971923828125,-4.40234375,-1.37890625,2.10546875
1,1826574302,0.736083984375,0.09912109375,-0.16131591796875,0.64990234375,-4.40234375,-1.37890625,2.10546875
1,1826581258,0.7359619140625,0.10186767578125,-0.1591796875,0.65008544921875,-4.296875,-1.44921875,2.15234375
1,1826589255,0.73553466796875,0.1053466796875,-0.15655517578125,0.65069580078125,-4.5546875,-1.48046875,2.2734375
1,1826596245,0.73516845703125,0.1080322265625,-0.15484619140625,0.65106201171875,-4.6171875,-1.54296875,2.296875
1,1826600291,0.7344970703125,0.10931396484375,-0.15399169921875,0.65179443359375,-4.6171875,-1.54296875,2.296875
1,1826607245,0.73406982421875,0.11181640625,-0.15252685546875,0.6522216796875,-4.76171875,-1.64453125,2.23046875
1,1826611291,0.73321533203125,0.11309814453125,-0.15179443359375,0.653076171875,-4.76171875,-1.64453125,2.23046875
1,1826619245,0.73248291015625,0.11572265625,-0.15032958984375,0.65380859375,-4.953125,-1.72265625,2.0625
1,1826622291,0.7318115234375,0.11663818359375,-0.1497802734375,0.654541015625,-4.953125,-1.72265625,2.0625
1,1826625291,0.73089599609375,0.11767578125,-0.14910888671875,0.655517578125,-4.953125,-1.72265625,2.0625
1,1826629291,0.72998046875,0.11871337890625,-0.14837646484375,0.65655517578125,-4.953125,-1.72265625,2.0625
1,1826636245,0.72894287109375,0.1212158203125,-0.14666748046875,0.6575927734375,-5.0703125,-1.86328125,1.86328125
1,1826643245,0.72802734375,0.12347412109375,-0.14495849609375,0.6585693359375,-5.14453125,-2.078125,1.91796875
1,1826646316,0.72723388671875,0.12420654296875,-0.14410400390625,0.65948486328125,-5.14453125,-2.078125,1.91796875
1,1826650290,0.72613525390625,0.125244140625,-0.1427001953125,0.66082763671875,-5.14453125,-2.078125,1.91796875
1,1826654352,0.72540283203125,0.1258544921875,-0.1416015625,0.6617431640625,-5.14453125,-2.078125,1.91796875
1,1826661247,0.72454833984375,0.1279296875,-0.139404296875,0.6627197265625,-5.3203125,-2.03125,2.4765625
1,1826668261,0.7236328125,0.12994384765625,-0.13677978515625,0.66387939453125,-5.2578125,-2.078125,2.5625
1,1826671299,0.72296142578125,0.13043212890625,-0.1353759765625,0.664794921875,-5.2578125,-2.078125,2.5625
1,1826679245,0.7220458984375,0.13232421875,-0.13250732421875,0.666015625,-5.25,-1.98046875,2.5625
1,1826683291,0.72137451171875,0.13275146484375,-0.13104248046875,0.6669921875,-5.25,-1.98046875,2.5625
1,1826686291,0.72052001953125,0.13330078125,-0.12921142578125,0.6680908203125,-5.25,-1.98046875,2.5625
1,1826690291,0.7197265625,0.13385009765625,-0.12744140625,0.66925048828125,-5.25,-1.98046875,2.5625
1,1826699245,0.7188720703125,0.1356201171875,-0.125,0.67022705078125,-5.2578125,-2.11328125,2.35546875
1,1826703291,0.718017578125,0.13623046875,-0.1234130859375,0.67132568359375,-5.2578125,-2.11328125,2.35546875
1,1826706291,0.7171630859375,0.13690185546875,-0.1219482421875,0.67236328125,-5.2578125,-2.11328125,2.35546875
1,1826710291,0.71630859375,0.13751220703125,-0.12054443359375,0.67340087890625,-5.2578125,-2.11328125,2.35546875
1,1826720245,0.7154541015625,0.13934326171875,-0.1185302734375,0.67431640625,-5.44140625,-2.3046875,1.94921875
1,1826724291,0.714599609375,0.13995361328125,-0.1173095703125,0.67523193359375,-5.44140625,-2.3046875,1.94921875
1,1826728298,0.7138671875,0.1405029296875,-0.11614990234375,0.6761474609375,-5.44140625,-2.3046875,1.94921875
1,1826731294,0.713134765625,0.14105224609375,-0.11505126953125,0.677001953125,-5.44140625,-2.3046875,1.94921875
1,1826741245,0.7125244140625,0.1427001953125,-0.11322021484375,0.6776123046875,-5.48046875,-2.63671875,1.62109375
1,1826745290,0.71148681640625,0.14373779296875,-0.11090087890625,0.67889404296875,-5.48046875,-2.63671875,1.62109375
1,1826749289,0.71124267578125,0.14404296875,-0.1099853515625,0.67919921875,-5.48046875,-2.63671875,1.62109375
1,1826756258,0.7110595703125,0.1453857421875,-0.10821533203125,0.67938232421875,-5.66015625,-3.125,1.55859375
1,1826763245,0.71099853515625,0.14666748046875,-0.1064453125,0.679443359375,-5.5859375,-3.1953125,1.7578125
1,1826766298,0.7109375,0.1468505859375,-0.1051025390625,0.6796875,-5.5859375,-3.1953125,1.7578125
1,1826770290,0.7109375,0.1468505859375,-0.1036376953125,0.67987060546875,-5.5859375,-3.1953125,1.7578125
1,1826777245,0.7109375,0.14764404296875,-0.10137939453125,0.6800537109375,-5.5390625,-3.3046875,2.41015625
1,1826780298,0.71087646484375,0.14727783203125,-0.0994873046875,0.68048095703125,-5.5390625,-3.3046875,2.41015625
1,1826786245,0.7108154296875,0.1475830078125,-0.09674072265625,0.680908203125,-5.48046875,-3.3203125,2.53125
1,1826790291,0.7105712890625,0.14678955078125,-0.0943603515625,0.681640625,-5.48046875,-3.3203125,2.53125
1,1826797245,0.7103271484375,0.146728515625,-0.0911865234375,0.682373046875,-5.44140625,-3.22265625,2.83984375
1,1826800291,0.70989990234375,0.1458740234375,-0.088623046875,0.68328857421875,-5.44140625,-3.22265625,2.83984375
1,1826804302,0.70941162109375,0.14495849609375,-0.08575439453125,0.68438720703125,-5.44140625,-3.22265625,2.83984375
1,1826810255,0.70892333984375,0.146484375,-0.08148193359375,0.68511962890625,-5.2734375,-3.11328125,3.04296875
1,1826818245,0.70831298828125,0.14788818359375,-0.0771484375,0.6859130859375,-5.078125,-2.90234375,3.03515625
1,1826821292,0.70770263671875,0.14739990234375,-0.074462890625,0.68695068359375,-5.078125,-2.90234375,3.03515625
1,1826824307,0.70703125,0.1470947265625,-0.0716552734375,0.68804931640625,-5.078125,-2.90234375,3.03515625
1,1826831245,0.70635986328125,0.14886474609375,-0.06768798828125,0.688720703125,-4.69921875,-2.7578125,2.63671875
1,1826835291,0.7056884765625,0.1490478515625,-0.06512451171875,0.6895751953125,-4.69921875,-2.7578125,2.63671875
1,1826842245,0.70501708984375,0.151123046875,-0.06146240234375,0.690185546875,-4.44921875,-2.8203125,2.5703125
1,1826845287,0.704345703125,0.1517333984375,-0.05902099609375,0.69091796875,-4.44921875,-2.8203125,2.5703125
1,1826849290,0.70361328125,0.1524658203125,-0.056640625,0.69171142578125,-4.44921875,-2.8203125,2.5703125
1,1826856245,0.702880859375,0.15478515625,-0.05340576171875,0.69219970703125,-4.1796875,-3.171875,2.5625
1,1826860289,0.70208740234375,0.15557861328125,-0.05096435546875,0.69305419921875,-4.1796875,-3.171875,2.5625
1,1826863287,0.701171875,0.1563720703125,-0.0484619140625,0.69390869140625,-4.1796875,-3.171875,2.5625
1,1826870258,0.70025634765625,0.15838623046875,-0.0450439453125,0.69464111328125,-4.26953125,-3.45703125,2.5859375
1,1826878251,0.69915771484375,0.16021728515625,-0.04150390625,0.695556640625,-4.4765625,-3.83203125,2.640625
1,1826881298,0.697998046875,0.16058349609375,-0.038818359375,0.69677734375,-4.4765625,-3.83203125,2.640625
1,1826884292,0.69683837890625,0.16082763671875,-0.0360107421875,0.69805908203125,-4.4765625,-3.83203125,2.640625
1,1826891245,0.695556640625,0.16204833984375,-0.032470703125,0.69921875,-4.63671875,-3.94921875,2.78515625
1,1826898245,0.69415283203125,0.1630859375,-0.02874755859375,0.70050048828125,-4.58203125,-3.9296875,2.87890625
1,1826901294,0.6927490234375,0.1629638671875,-0.02581787109375,0.70208740234375,-4.58203125,-3.9296875,2.87890625
1,1826905296,0.69134521484375,0.1627197265625,-0.02313232421875,0.70355224609375,-4.58203125,-3.9296875,2.87890625
1,1826909290,0.68994140625,0.1624755859375,-0.0203857421875,0.705078125,-4.58203125,-3.9296875,2.87890625
1,1826916242,0.68865966796875,0.16326904296875,-0.01727294921875,0.70623779296875,-4.5703125,-3.9140625,2.92578125
1,1826920285,0.68731689453125,0.16302490234375,-0.01470947265625,0.70770263671875,-4.5703125,-3.9140625,2.92578125
1,1826924285,0.68597412109375,0.162841796875,-0.01239013671875,0.70904541015625,-4.5703125,-3.9140625,2.92578125
1,1826931245,0.68487548828125,0.16375732421875,-0.00982666015625,0.7099609375,-4.73828125,-4.3984375,2.671875
1,1826937291,0.68365478515625,0.16387939453125,-0.00787353515625,0.71112060546875,-4.73828125,-4.3984375,2.671875
1,1826940294,0.6826171875,0.1640625,-0.0062255859375,0.71209716796875,-4.73828125,-4.3984375,2.671875
1,1826943291,0.681640625,0.16436767578125,-0.004638671875,0.7130126953125,-4.73828125,-4.3984375,2.671875
1,1826954245,0.6807861328125,0.16552734375,-0.0028076171875,0.7135009765625,-4.8125,-4.90625,2.734375
1,1826958291,0.68011474609375,0.165771484375,-0.0015869140625,0.714111328125,-4.8125,-4.90625,2.734375
1,1826961291,0.67950439453125,0.166015625,-0.00042724609375,0.71466064453125,-4.8125,-4.90625,2.734375
1,1826972255,0.67889404296875,0.16693115234375,0.00128173828125,0.7149658203125,-4.8046875,-5.12890625,2.6328125
1,1826976289,0.6783447265625,0.166748046875,0.00323486328125,0.715576171875,-4.8046875,-5.12890625,2.6328125
1,1826979287,0.67822265625,0.16644287109375,0.0042724609375,0.71575927734375,-4.8046875,-5.12890625,2.6328125
1,1826983294,0.67822265625,0.16607666015625,0.005126953125,0.71588134765625,-4.8046875,-5.12890625,2.6328125
1,1826989260,0.67822265625,0.166259765625,0.00665283203125,0.71575927734375,-4.6640625,-5.17578125,2.6328125
1,1826997245,0.67828369140625,0.16650390625,0.0079345703125,0.71563720703125,-4.671875,-5.17578125,2.7421875
1,1827000289,0.67840576171875,0.166015625,0.00872802734375,0.71563720703125,-4.671875,-5.17578125,2.7421875
1,1827008245,0.67852783203125,0.16607666015625,0.01007080078125,0.7154541015625,-4.51171875,-5.21875,2.87890625
1,1827011289,0.67864990234375,0.1656494140625,0.01080322265625,0.7154541015625,-4.51171875,-5.21875,2.87890625
1,1827014289,0.67877197265625,0.16522216796875,0.0115966796875,0.71539306640625,-4.51171875,-5.21875,2.87890625
1,1827019291,0.6788330078125,0.1649169921875,0.01220703125,0.71539306640625,-4.51171875,-5.21875,2.87890625
1,1827025245,0.6788330078125,0.165283203125,0.01336669921875,0.71533203125,-4.37890625,-5.265625,2.74609375
1,1827032245,0.67877197265625,0.16583251953125,0.01434326171875,0.71527099609375,-4.39453125,-5.3515625,2.25
1,1827035289,0.67864990234375,0.1658935546875,0.01470947265625,0.71533203125,-4.39453125,-5.3515625,2.25
1,1827038288,0.67840576171875,0.1661376953125,0.01513671875,0.71551513671875,-4.39453125,-5.3515625,2.25
1,1827045250,0.6781005859375,0.1669921875,0.015869140625,0.715576171875,-4.4609375,-5.55078125,2.09765625
1,1827049290,0.677734375,0.16748046875,0.01617431640625,0.7158203125,-4.4609375,-5.55078125,2.09765625
1,1827056260,0.6773681640625,0.16839599609375,0.01678466796875,0.7159423828125,-4.59765625,-5.98046875,2.21875
1,1827059286,0.6768798828125,0.1689453125,0.01715087890625,0.71624755859375,-4.59765625,-5.98046875,2.21875
1,1827066259,0.67645263671875,0.16986083984375,0.01788330078125,0.71636962890625,-4.67578125,-6.02734375,2.1875
1,1827070290,0.676025390625,0.17041015625,0.01837158203125,0.71661376953125,-4.67578125,-6.02734375,2.1875
1,1827074330,0.67572021484375,0.17083740234375,0.01885986328125,0.71685791015625,-4.67578125,-6.02734375,2.1875
1,1827080244,0.67547607421875,0.17156982421875,0.019775390625,0.71685791015625,-4.484375,-5.7421875,2.16015625
1,1827084293,0.67535400390625,0.1719970703125,0.0203857421875,0.71685791015625,-4.484375,-5.7421875,2.16015625
1,1827091244,0.67529296875,0.1727294921875,0.02130126953125,0.71673583984375,-4.4296875,-5.328125,2.05078125
1,1827095291,0.67535400390625,0.17315673828125,0.02191162109375,0.716552734375,-4.4296875,-5.328125,2.05078125
1,1827103244,0.6754150390625,0.1739501953125,0.02288818359375,0.71624755859375,-4.13671875,-5.11328125,2.2421875
1,1827106291,0.675537109375,0.17431640625,0.02337646484375,0.71600341796875,-4.13671875,-5.11328125,2.2421875
1,1827110290,0.67572021484375,0.1749267578125,0.02398681640625,0.7156982421875,-4.13671875,-5.11328125,2.2421875
1,1827114291,0.67584228515625,0.175537109375,0.0245361328125,0.7154541015625,-4.13671875,-5.11328125,2.2421875
1,1827120261,0.67578125,0.17742919921875,0.026123046875,0.7149658203125,-3.953125,-5.1171875,2.18359375
1,1827124298,0.6756591796875,0.17828369140625,0.026611328125,0.71484375,-3.953125,-5.1171875,2.18359375
1,1827132261,0.6754150390625,0.18017578125,0.028076171875,0.71453857421875,-4.01953125,-5.4296875,2.2734375
1,1827135304,0.67498779296875,0.18109130859375,0.028564453125,0.71466064453125,-4.01953125,-5.4296875,2.2734375
1,1827142249,0.67437744140625,0.18328857421875,0.03009033203125,0.71466064453125,-4.08203125,-5.66796875,2.55859375
1,1827145288,0.673828125,0.1842041015625,0.03045654296875,0.71490478515625,-4.08203125,-5.66796875,2.55859375
1,1827149289,0.6729736328125,0.18536376953125,0.031005859375,0.71539306640625,-4.08203125,-5.66796875,2.55859375
1,1827154288,0.67230224609375,0.186279296875,0.03143310546875,0.71575927734375,-4.08203125,-5.66796875,2.55859375
1,1827160247,0.67144775390625,0.18817138671875,0.03277587890625,0.71600341796875,-4.203125,-5.70703125,2.48046875
1,1827168244,0.6697998046875,0.19097900390625,0.034423828125,0.71673583984375,-4.203125,-5.59765625,2.48828125
1,1827175261,0.6690673828125,0.19268798828125,0.0355224609375,0.7169189453125,-4.16796875,-5.4609375,2.51171875
1,1827179291,0.6683349609375,0.1937255859375,0.03582763671875,0.71728515625,-4.16796875,-5.4609375,2.51171875
1,1827186245,0.6678466796875,0.19525146484375,0.0367431640625,0.71728515625,-4.17578125,-5.31640625,2.3671875
1,1827190293,0.6673583984375,0.19622802734375,0.036865234375,0.71746826171875,-4.17578125,-5.31640625,2.3671875
1,1827193292,0.6669921875,0.19708251953125,0.0369873046875,0.71759033203125,-4.17578125,-5.31640625,2.3671875
1,1827200253,0.66668701171875,0.198486328125,0.03778076171875,0.7174072265625,-4.08984375,-5.37109375,2.60546875
1,1827208254,0.6663818359375,0.2001953125,0.03851318359375,0.7171630859375,-4.05078125,-5.4453125,2.765625
1,1827211288,0.66619873046875,0.20098876953125,0.03857421875,0.7171630859375,-4.05078125,-5.4453125,2.765625
1,1827214288,0.6658935546875,0.20196533203125,0.03875732421875,0.7171630859375,-4.05078125,-5.4453125,2.765625
1,1827221245,0.6656494140625,0.2032470703125,0.03948974609375,0.71697998046875,-4.01171875,-5.76953125,3.01171875
1,1827225293,0.665283203125,0.2041015625,0.03973388671875,0.717041015625,-4.01171875,-5.76953125,3.01171875
1,1827229291,0.66485595703125,0.20489501953125,0.03997802734375,0.7171630859375,-4.01171875,-5.76953125,3.01171875
1,1827233291,0.66455078125,0.20550537109375,0.04022216796875,0.71734619140625,-4.01171875,-5.76953125,3.01171875
1,1827240245,0.66400146484375,0.20684814453125,0.04107666015625,0.71734619140625,-4.11328125,-5.890625,3.11328125
1,1827248245,0.6630859375,0.20867919921875,0.04205322265625,0.7176513671875,-4.2265625,-5.9375,3.16015625
1,1827255245,0.66259765625,0.20989990234375,0.042724609375,0.71771240234375,-4.2578125,-5.86328125,3.12890625
1,1827259291,0.66204833984375,0.210693359375,0.0428466796875,0.71795654296875,-4.2578125,-5.86328125,3.12890625
1,1827266245,0.6617431640625,0.2117919921875,0.04339599609375,0.7178955078125,-4.296875,-5.74609375,2.859375
1,1827270291,0.661376953125,0.21258544921875,0.0433349609375,0.718017578125,-4.296875,-5.74609375,2.859375
1,1827278253,0.6611328125,0.21368408203125,0.04364013671875,0.7178955078125,-4.41015625,-5.6328125,2.90625
1,1827281292,0.6610107421875,0.2142333984375,0.04351806640625,0.71783447265625,-4.41015625,-5.6328125,2.90625
1,1827284297,0.66094970703125,0.21478271484375,0.04327392578125,0.71771240234375,-4.41015625,-5.6328125,2.90625
1,1827288296,0.66094970703125,0.21527099609375,0.04302978515625,0.71759033203125,-4.41015625,-5.6328125,2.90625
1,1827295263,0.66107177734375,0.21612548828125,0.04315185546875,0.71722412109375,-4.40234375,-5.546875,2.90625
1,1827302256,0.6611328125,0.216796875,0.04339599609375,0.7169189453125,-4.39453125,-5.5390625,2.7890625
1,1827305290,0.6612548828125,0.21697998046875,0.043212890625,0.716796875,-4.39453125,-5.5390625,2.7890625
1,1827309290,0.661376953125,0.21710205078125,0.0430908203125,0.7166748046875,-4.39453125,-5.5390625,2.7890625
1,1827313302,0.66143798828125,0.2171630859375,0.04296875,0.716552734375,-4.39453125,-5.5390625,2.7890625
1,1827320245,0.66156005859375,0.21746826171875,0.0433349609375,0.71636962890625,-4.35546875,-5.59375,2.58203125
1,1827324289,0.66162109375,0.21746826171875,0.04327392578125,0.71630859375,-4.35546875,-5.59375,2.58203125
1,1827328289,0.66162109375,0.21746826171875,0.0433349609375,0.71630859375,-4.35546875,-5.59375,2.58203125
1,1827334245,0.66162109375,0.2177734375,0.04376220703125,0.7161865234375,-4.32421875,-5.68359375,2.53125
1,1827341245,0.66162109375,0.218017578125,0.044189453125,0.716064453125,-4.26953125,-5.90625,2.40625
1,1827345289,0.66162109375,0.21807861328125,0.04437255859375,0.716064453125,-4.26953125,-5.90625,2.40625
1,1827349289,0.66156005859375,0.2181396484375,0.04449462890625,0.716064453125,-4.26953125,-5.90625,2.40625
1,1827356245,0.6614990234375,0.21856689453125,0.0450439453125,0.71600341796875,-4.1640625,-5.890625,2.54296875
1,1827360289,0.66143798828125,0.21875,0.04522705078125,0.7159423828125,-4.1640625,-5.890625,2.54296875
1,1827364295,0.661376953125,0.21905517578125,0.04547119140625,0.71588134765625,-4.1640625,-5.890625,2.54296875
1,1827368289,0.661376953125,0.21923828125,0.045654296875,0.7158203125,-4.1640625,-5.890625,2.54296875
1,1827375268,0.661376953125,0.2198486328125,0.04620361328125,0.71563720703125,-3.97265625,-5.61328125,2.58203125
1,1827383245,0.66131591796875,0.22052001953125,0.0467529296875,0.71539306640625,-3.87109375,-5.453125,2.61328125
1,1827386289,0.66131591796875,0.2208251953125,0.046875,0.71533203125,-3.87109375,-5.453125,2.61328125
1,1827390289,0.6612548828125,0.2213134765625,0.0469970703125,0.71527099609375,-3.87109375,-5.453125,2.61328125
1,1827397248,0.6611328125,0.22198486328125,0.0474853515625,0.715087890625,-3.85546875,-5.29296875,2.53515625
1,1827400289,0.66094970703125,0.22259521484375,0.04754638671875,0.715087890625,-3.85546875,-5.29296875,2.53515625
1,1827403289,0.66070556640625,0.22320556640625,0.047607421875,0.715087890625,-3.85546875,-5.29296875,2.53515625
1,1827410245,0.660400390625,0.22406005859375,0.04791259765625,0.715087890625,-3.87890625,-5.25390625,2.5
1,1827414289,0.6600341796875,0.2247314453125,0.0478515625,0.7152099609375,-3.87890625,-5.25390625,2.5
1,1827421245,0.65966796875,0.22564697265625,0.048095703125,0.71527099609375,-3.83984375,-5.17578125,2.4609375
1,1827424289,0.65924072265625,0.226318359375,0.0479736328125,0.7154541015625,-3.83984375,-5.17578125,2.4609375
1,1827428289,0.65875244140625,0.22705078125,0.04779052734375,0.7156982421875,-3.83984375,-5.17578125,2.4609375
1,1827435247,0.6583251953125,0.2279052734375,0.04791259765625,0.7158203125,-3.9921875,-5.19921875,2.23046875
1,1827439289,0.65789794921875,0.22857666015625,0.04766845703125,0.71600341796875,-3.9921875,-5.19921875,2.23046875
1,1827445250,0.65753173828125,0.22979736328125,0.04833984375,0.71588134765625,-4.078125,-5.22265625,2.5078125
1,1827449289,0.6572265625,0.23040771484375,0.04803466796875,0.71600341796875,-4.078125,-5.22265625,2.5078125
1,1827456247,0.65704345703125,0.23150634765625,0.048583984375,0.71575927734375,-4.125,-5.18359375,2.62109375
1,1827459287,0.6568603515625,0.23199462890625,0.0482177734375,0.71575927734375,-4.125,-5.18359375,2.62109375
1,1827463290,0.65679931640625,0.232421875,0.0478515625,0.71575927734375,-4.125,-5.18359375,2.62109375
1,1827469242,0.6568603515625,0.23321533203125,0.0482177734375,0.71539306640625,-4.23046875,-5.078125,2.453125
1,1827473289,0.65692138671875,0.23345947265625,0.0477294921875,0.71533203125,-4.23046875,-5.078125,2.453125
1,1827480242,0.65704345703125,0.23406982421875,0.04791259765625,0.7149658203125,-4.30078125,-4.9453125,2.328125
1,1827484290,0.6572265625,0.23419189453125,0.04730224609375,0.71484375,-4.30078125,-4.9453125,2.328125
1,1827488286,0.6573486328125,0.234375,0.046630859375,0.7147216796875,-4.30078125,-4.9453125,2.328125
1,1827495245,0.65753173828125,0.23480224609375,0.04656982421875,0.71441650390625,-4.3203125,-4.83203125,2.4296875
1,1827499286,0.6575927734375,0.23486328125,0.04583740234375,0.71435546875,-4.3203125,-4.83203125,2.4296875
1,1827502289,0.65765380859375,0.23492431640625,0.0450439453125,0.71435546875,-4.3203125,-4.83203125,2.4296875
1,1827509244,0.65765380859375,0.23529052734375,0.044921875,0.7142333984375,-4.359375,-4.78515625,2.359375
1,1827517253,0.6575927734375,0.235595703125,0.0447998046875,0.71417236328125,-4.51171875,-4.8671875,2.34375
1,1827520291,0.6573486328125,0.2357177734375,0.04412841796875,0.71441650390625,-4.51171875,-4.8671875,2.34375
1,1827524289,0.65704345703125,0.23590087890625,0.04351806640625,0.71466064453125,-4.51171875,-4.8671875,2.34375
1,1827528290,0.6566162109375,0.236083984375,0.04302978515625,0.71502685546875,-4.51171875,-4.8671875,2.34375
1,1827535257,0.6561279296875,0.236572265625,0.0430908203125,0.71533203125,-4.58203125,-5.01953125,2.2890625
1,1827539289,0.65545654296875,0.2369384765625,0.04266357421875,0.7158203125,-4.58203125,-5.01953125,2.2890625
1,1827542291,0.65472412109375,0.23736572265625,0.0423583984375,0.71636962890625,-4.58203125,-5.01953125,2.2890625
1,1827549248,0.654052734375,0.23797607421875,0.0426025390625,0.71673583984375,-4.62890625,-4.98828125,2.2734375
1,1827557245,0.6533203125,0.23870849609375,0.04278564453125,0.7171630859375,-4.55859375,-4.97265625,2.34375
1,1827560289,0.65264892578125,0.2392578125,0.042724609375,0.7176513671875,-4.55859375,-4.97265625,2.34375
1,1827564289,0.65191650390625,0.2398681640625,0.04266357421875,0.71807861328125,-4.55859375,-4.97265625,2.34375
1,1827568289,0.6512451171875,0.240478515625,0.042724609375,0.718505859375,-4.55859375,-4.97265625,2.34375
1,1827577245,0.6507568359375,0.24114990234375,0.043212890625,0.71868896484375,-4.453125,-4.95703125,2.3515625
1,1827580291,0.65020751953125,0.24176025390625,0.0433349609375,0.718994140625,-4.453125,-4.95703125,2.3515625
1,1827583289,0.649658203125,0.242431640625,0.04351806640625,0.71917724609375,-4.453125,-4.95703125,2.3515625
1,1827594245,0.6492919921875,0.24310302734375,0.04400634765625,0.71929931640625,-4.3671875,-4.94921875,2.19921875
1,1827598297,0.6485595703125,0.24432373046875,0.04437255859375,0.71954345703125,-4.3671875,-4.94921875,2.19921875
1,1827604245,0.6483154296875,0.2449951171875,0.04486083984375,0.719482421875,-4.20703125,-4.98046875,2.16015625
1,1827611291,0.6480712890625,0.24560546875,0.044921875,0.719482421875,-4.20703125,-4.98046875,2.16015625
1,1827614291,0.64794921875,0.24615478515625,0.04498291015625,0.71942138671875,-4.20703125,-4.98046875,2.16015625
1,1827617293,0.6478271484375,0.246826171875,0.044921875,0.71929931640625,-4.20703125,-4.98046875,2.16015625
1,1827624245,0.6478271484375,0.24755859375,0.04510498046875,0.71905517578125,-3.9921875,-4.89453125,2.2421875
1,1827627291,0.6478271484375,0.24810791015625,0.04498291015625,0.7188720703125,-3.9921875,-4.89453125,2.2421875
1,1827634245,0.6478271484375,0.24871826171875,0.04510498046875,0.7186279296875,-4.13671875,-4.85546875,2.3125
1,1827638291,0.64788818359375,0.249267578125,0.04486083984375,0.7183837890625,-4.13671875,-4.85546875,2.3125
1,1827645245,0.64788818359375,0.24981689453125,0.044921875,0.71820068359375,-4.3671875,-4.640625,2.49609375
1,1827649293,0.6478271484375,0.25030517578125,0.044677734375,0.71807861328125,-4.3671875,-4.640625,2.49609375
1,1827655245,0.647705078125,0.2508544921875,0.044677734375,0.718017578125,-4.51171875,-4.55078125,2.57421875
1,1827659291,0.64752197265625,0.25128173828125,0.04443359375,0.71807861328125,-4.51171875,-4.55078125,2.57421875
1,1827667245,0.64678955078125,0.2520751953125,0.044189453125,0.71844482421875,-4.66796875,-4.42578125,2.640625
1,1827675248,0.646240234375,0.2525634765625,0.04412841796875,0.71875,-4.8125,-4.3359375,2.59375
1,1827679287,0.64556884765625,0.25311279296875,0.04376220703125,0.71917724609375,-4.8125,-4.3359375,2.59375
1,1827687245,0.64422607421875,0.2542724609375,0.043212890625,0.72003173828125,-4.78125,-4.1953125,2.59375
1,1827695245,0.6435546875,0.25506591796875,0.04296875,0.72039794921875,-4.703125,-4.09765625,2.5859375
1,1827699291,0.64276123046875,0.2559814453125,0.0423583984375,0.72076416015625,-4.703125,-4.09765625,2.5859375
1,1827707245,0.6414794921875,0.25799560546875,0.04144287109375,0.72125244140625,-4.7265625,-4.05078125,2.38671875
1,1827714245,0.64093017578125,0.25909423828125,0.041015625,0.72137451171875,-4.8203125,-4.03515625,2.43359375
1,1827722245,0.64031982421875,0.2603759765625,0.04058837890625,0.72149658203125,-4.75,-4.10546875,2.51171875
1,1827725291,0.639892578125,0.2613525390625,0.04010009765625,0.7215576171875,-4.75,-4.10546875,2.51171875
1,1827729291,0.63934326171875,0.26263427734375,0.03955078125,0.7215576171875,-4.75,-4.10546875,2.51171875
1,1827733291,0.638916015625,0.2637939453125,0.03912353515625,0.7215576171875,-4.75,-4.10546875,2.51171875
1,1827739245,0.63861083984375,0.2647705078125,0.0389404296875,0.72149658203125,-4.84375,-4.1640625,2.25
1,1827743291,0.63818359375,0.26580810546875,0.03863525390625,0.72149658203125,-4.84375,-4.1640625,2.25
1,1827750250,0.63787841796875,0.26654052734375,0.03863525390625,0.72149658203125,-4.9609375,-4.1953125,2.44140625
1,1827754287,0.63751220703125,0.26727294921875,0.03851318359375,0.7215576171875,-4.9609375,-4.1953125,2.44140625
1,1827761245,0.63726806640625,0.267822265625,0.0389404296875,0.7215576171875,-4.890625,-4.109375,2.44140625
1,1827764288,0.63702392578125,0.26812744140625,0.0389404296875,0.7216796875,-4.890625,-4.109375,2.44140625
1,1827768284,0.63665771484375,0.268310546875,0.0390625,0.72186279296875,-4.890625,-4.109375,2.44140625
1,1827772293,0.63641357421875,0.268310546875,0.03912353515625,0.72210693359375,-4.890625,-4.109375,2.44140625
1,1827778245,0.63623046875,0.268310546875,0.03973388671875,0.72222900390625,-4.78125,-4.0859375,2.359375
1,1827785249,0.63616943359375,0.2681884765625,0.040283203125,0.7222900390625,-4.69921875,-4.078125,2.3046875
1,1827789291,0.63604736328125,0.26806640625,0.04034423828125,0.72247314453125,-4.69921875,-4.078125,2.3046875
1,1827792288,0.63592529296875,0.2679443359375,0.04046630859375,0.72259521484375,-4.69921875,-4.078125,2.3046875
1,1827798245,0.635986328125,0.2679443359375,0.04083251953125,0.7225341796875,-4.62109375,-4.0859375,2.21875
1,1827805245,0.6361083984375,0.2679443359375,0.04119873046875,0.722412109375,-4.69140625,-4.23046875,2.1640625
1,1827809291,0.63623046875,0.26800537109375,0.04107666015625,0.7222900390625,-4.69140625,-4.23046875,2.1640625
1,1827812291,0.6363525390625,0.2681884765625,0.04095458984375,0.72210693359375,-4.69140625,-4.23046875,2.1640625
1,1827819245,0.63653564453125,0.26837158203125,0.0411376953125,0.721923828125,-4.6875,-4.0859375,1.99609375
1,1827827245,0.63671875,0.26861572265625,0.04119873046875,0.72161865234375,-4.765625,-4.0859375,1.9140625
1,1827830293,0.63677978515625,0.26885986328125,0.041015625,0.72149658203125,-4.765625,-4.0859375,1.9140625
1,1827833284,0.6368408203125,0.2691650390625,0.0406494140625,0.72137451171875,-4.765625,-4.0859375,1.9140625
1,1827840264,0.6368408203125,0.2694091796875,0.04071044921875,0.72125244140625,-4.85546875,-3.94140625,2.125
1,1827844296,0.63677978515625,0.26971435546875,0.0404052734375,0.72125244140625,-4.85546875,-3.94140625,2.125
1,1827848298,0.6365966796875,0.26995849609375,0.04010009765625,0.72125244140625,-4.85546875,-3.94140625,2.125
1,1827852291,0.636474609375,0.27008056640625,0.0399169921875,0.72137451171875,-4.85546875,-3.94140625,2.125
1,1827858245,0.63623046875,0.270263671875,0.0399169921875,0.72149658203125,-4.91015625,-3.86328125,2.21875
1,1827865245,0.6361083984375,0.27032470703125,0.04010009765625,0.72161865234375,-4.98828125,-3.9609375,2.06640625
1,1827869291,0.6357421875,0.27044677734375,0.0399169921875,0.72186279296875,-4.98828125,-3.9609375,2.06640625
1,1827877245,0.635498046875,0.2705078125,0.0400390625,0.7220458984375,-4.94140625,-3.87109375,1.859375
1,1827880289,0.63525390625,0.2706298828125,0.0399169921875,0.72222900390625,-4.94140625,-3.87109375,1.859375
1,1827883290,0.63494873046875,0.27081298828125,0.03973388671875,0.72247314453125,-4.94140625,-3.87109375,1.859375
1,1827887289,0.63470458984375,0.27099609375,0.03955078125,0.72259521484375,-4.94140625,-3.87109375,1.859375
1,1827894245,0.63446044921875,0.27117919921875,0.03955078125,0.72271728515625,-4.87890625,-3.8671875,1.8359375
1,1827901245,0.63433837890625,0.27130126953125,0.03955078125,0.7227783203125,-4.79296875,-3.78515625,1.8359375
1,1827904287,0.63427734375,0.2713623046875,0.03936767578125,0.72283935546875,-4.79296875,-3.78515625,1.8359375
1,1827908298,0.6341552734375,0.27142333984375,0.03912353515625,0.72296142578125,-4.79296875,-3.78515625,1.8359375
1,1827912294,0.63409423828125,0.27142333984375,0.03900146484375,0.72296142578125,-4.79296875,-3.78515625,1.8359375
1,1827919266,0.6341552734375,0.2713623046875,0.0390625,0.72296142578125,-4.5703125,-3.66015625,1.87109375
1,1827926262,0.6341552734375,0.27130126953125,0.03912353515625,0.72296142578125,-4.51953125,-3.72265625,1.91015625
1,1827929296,0.6341552734375,0.271240234375,0.0390625,0.7230224609375,-4.51953125,-3.72265625,1.91015625
1,1827937245,0.63421630859375,0.27117919921875,0.0391845703125,0.72296142578125,-4.46484375,-3.8203125,1.98046875
1,1827940293,0.63421630859375,0.27117919921875,0.03912353515625,0.72296142578125,-4.46484375,-3.8203125,1.98046875
1,1827943291,0.63421630859375,0.27117919921875,0.0390625,0.7230224609375,-4.46484375,-3.8203125,1.98046875
1,1827948291,0.63409423828125,0.271240234375,0.0390625,0.7230224609375,-4.46484375,-3.8203125,1.98046875
1,1827954245,0.634033203125,0.27130126953125,0.0391845703125,0.72308349609375,-4.42578125,-3.90625,2.03125
1,1827962245,0.6339111328125,0.27142333984375,0.039306640625,0.72314453125,-4.5234375,-3.8828125,2.1328125
1,1827965291,0.63372802734375,0.2716064453125,0.03924560546875,0.72320556640625,-4.5234375,-3.8828125,2.1328125
1,1827969291,0.63360595703125,0.27178955078125,0.0391845703125,0.72332763671875,-4.5234375,-3.8828125,2.1328125
1,1827976245,0.63336181640625,0.27203369140625,0.03912353515625,0.723388671875,-4.5859375,-3.67578125,1.92578125
1,1827979291,0.63323974609375,0.272216796875,0.03900146484375,0.72344970703125,-4.5859375,-3.67578125,1.92578125
1,1827983294,0.633056640625,0.2724609375,0.0386962890625,0.72357177734375,-4.5859375,-3.67578125,1.92578125
1,1827987289,0.6329345703125,0.27264404296875,0.0384521484375,0.72357177734375,-4.5859375,-3.67578125,1.92578125
1,1827995246,0.6329345703125,0.2728271484375,0.03826904296875,0.72357177734375,-4.63671875,-3.51953125,1.9453125
1,1827998291,0.63287353515625,0.27301025390625,0.037841796875,0.7235107421875,-4.63671875,-3.51953125,1.9453125
1,1828005261,0.63299560546875,0.2730712890625,0.03759765625,0.72344970703125,-4.62890625,-3.45703125,2.0078125
1,1828009296,0.633056640625,0.273193359375,0.037109375,0.72332763671875,-4.62890625,-3.45703125,2.0078125
1,1828016245,0.6331787109375,0.273193359375,0.036865234375,0.72320556640625,-4.546875,-3.43359375,1.921875
1,1828019289,0.63336181640625,0.273193359375,0.03643798828125,0.72314453125,-4.546875,-3.43359375,1.921875
1,1828022289,0.633544921875,0.273193359375,0.0360107421875,0.7230224609375,-4.546875,-3.43359375,1.921875
1,1828029245,0.6337890625,0.2730712890625,0.03570556640625,0.72283935546875,-4.4765625,-3.37890625,1.85546875
1,1828033289,0.63397216796875,0.2730712890625,0.0352783203125,0.72271728515625,-4.4765625,-3.37890625,1.85546875
1,1828040245,0.63421630859375,0.27294921875,0.0350341796875,0.7225341796875,-4.390625,-3.36328125,1.921875
1,1828044289,0.6343994140625,0.27294921875,0.03466796875,0.722412109375,-4.390625,-3.36328125,1.921875
1,1828048289,0.634521484375,0.27294921875,0.0343017578125,0.7222900390625,-4.390625,-3.36328125,1.921875
1,1828055245,0.63470458984375,0.27288818359375,0.0341796875,0.72216796875,-4.359375,-3.44140625,2.05078125
1,1828059290,0.634765625,0.27288818359375,0.03387451171875,0.72210693359375,-4.359375,-3.44140625,2.05078125
1,1828062292,0.634765625,0.2728271484375,0.03363037109375,0.72210693359375,-4.359375,-3.44140625,2.05078125
1,1828068253,0.634765625,0.27276611328125,0.0335693359375,0.72216796875,-4.375,-3.4765625,2.02734375
1,1828076245,0.634765625,0.272705078125,0.03350830078125,0.72216796875,-4.484375,-3.43359375,2.05859375
1,1828079291,0.6346435546875,0.272705078125,0.0333251953125,0.7222900390625,-4.484375,-3.43359375,2.05859375
1,1828082295,0.634521484375,0.272705078125,0.033203125,0.722412109375,-4.484375,-3.43359375,2.05859375
1,1828089250,0.63446044921875,0.2724609375,0.033447265625,0.7225341796875,-4.56640625,-3.38671875,2.07421875
1,1828093289,0.63427734375,0.27239990234375,0.0333251953125,0.72271728515625,-4.56640625,-3.38671875,2.07421875
1,1828100245,0.63421630859375,0.2720947265625,0.03350830078125,0.722900390625,-4.6640625,-3.37890625,1.9140625
1,1828103289,0.634033203125,0.27203369140625,0.03326416015625,0.72308349609375,-4.6640625,-3.37890625,1.9140625
1,1828107289,0.63385009765625,0.27191162109375,0.03302001953125,0.72332763671875,-4.6640625,-3.37890625,1.9140625
1,1828114245,0.63385009765625,0.27154541015625,0.03314208984375,0.72344970703125,-4.6796875,-3.33984375,1.66015625
1,1828118289,0.6337890625,0.2713623046875,0.03289794921875,0.72357177734375,-4.6796875,-3.33984375,1.66015625
1,1828122289,0.63372802734375,0.27117919921875,0.03265380859375,0.72369384765625,-4.6796875,-3.33984375,1.66015625
1,1828128245,0.6339111328125,0.270751953125,0.03271484375,0.7237548828125,-4.48828125,-3.359375,1.78125
1,1828132289,0.63397216796875,0.2705078125,0.03240966796875,0.7237548828125,-4.48828125,-3.359375,1.78125
1,1828139252,0.63421630859375,0.2701416015625,0.03253173828125,0.72369384765625,-4.328125,-3.3046875,1.66015625
1,1828143289,0.6343994140625,0.2698974609375,0.0323486328125,0.7236328125,-4.328125,-3.3046875,1.66015625
1,1828147298,0.6346435546875,0.2696533203125,0.0322265625,0.7235107421875,-4.328125,-3.3046875,1.66015625
1,1828154248,0.63494873046875,0.269287109375,0.03240966796875,0.723388671875,-4.09765625,-3.19140625,1.859375
1,1828158314,0.63525390625,0.26910400390625,0.03228759765625,0.72320556640625,-4.09765625,-3.19140625,1.859375
1,1828161292,0.635498046875,0.26898193359375,0.03216552734375,0.7230224609375,-4.09765625,-3.19140625,1.859375
1,1828168245,0.63580322265625,0.26873779296875,0.0323486328125,0.72283935546875,-4.09765625,-3.16015625,1.91796875
1,1828176245,0.63604736328125,0.2684326171875,0.0325927734375,0.72271728515625,-4.1796875,-3.2109375,1.7890625
1,1828179291,0.6361083984375,0.26837158203125,0.03253173828125,0.72271728515625,-4.1796875,-3.2109375,1.7890625
1,1828183291,0.63604736328125,0.26824951171875,0.0325927734375,0.7227783203125,-4.1796875,-3.2109375,1.7890625
1,1828187291,0.63592529296875,0.2681884765625,0.0325927734375,0.722900390625,-4.1796875,-3.2109375,1.7890625
1,1828194248,0.63580322265625,0.2679443359375,0.03289794921875,0.72314453125,-4.2265625,-3.34375,1.46484375
1,1828198289,0.635498046875,0.267822265625,0.032958984375,0.723388671875,-4.2265625,-3.34375,1.46484375
1,1828201295,0.63519287109375,0.2677001953125,0.032958984375,0.7237548828125,-4.2265625,-3.34375,1.46484375
1,1828208245,0.635009765625,0.267333984375,0.03326416015625,0.7239990234375,-4.22265625,-3.38671875,1.56640625
1,1828216245,0.63482666015625,0.2669677734375,0.0335693359375,0.72430419921875,-4.24609375,-3.41015625,1.47265625
1,1828219298,0.6346435546875,0.2667236328125,0.03363037109375,0.72454833984375,-4.24609375,-3.41015625,1.47265625
1,1828223291,0.634521484375,0.26641845703125,0.03375244140625,0.7247314453125,-4.24609375,-3.41015625,1.47265625
1,1828227294,0.634521484375,0.26611328125,0.0338134765625,0.724853515625,-4.24609375,-3.41015625,1.47265625
1,1828234260,0.6346435546875,0.265625,0.0340576171875,0.72491455078125,-3.85546875,-3.29296875,1.15234375
1,1828238298,0.634765625,0.2652587890625,0.0340576171875,0.7249755859375,-3.85546875,-3.29296875,1.15234375
1,1828246258,0.6351318359375,0.26446533203125,0.03424072265625,0.72491455078125,-3.6328125,-3.4609375,1.2109375
1,1828254245,0.63531494140625,0.26385498046875,0.034423828125,0.72491455078125,-3.71484375,-3.62890625,1.15625
1,1828258291,0.635498046875,0.26336669921875,0.03448486328125,0.7249755859375,-3.71484375,-3.62890625,1.15625
1,1828266245,0.6358642578125,0.261962890625,0.03521728515625,0.72515869140625,-3.9921875,-3.72265625,0.98046875
1,1828274245,0.635986328125,0.2608642578125,0.03594970703125,0.72540283203125,-3.71484375,-3.8125,0.78125
1,1828278291,0.63604736328125,0.25970458984375,0.0367431640625,0.7257080078125,-3.71484375,-3.8125,0.78125
1,1828286245,0.6361083984375,0.25653076171875,0.0390625,0.7266845703125,-3.69921875,-4.12890625,1.48828125
1,1828294245,0.63616943359375,0.2542724609375,0.04071044921875,0.727294921875,-3.84375,-4.2578125,1.69921875
1,1828298295,0.63623046875,0.2518310546875,0.0423583984375,0.72802734375,-3.84375,-4.2578125,1.69921875
1,1828306248,0.6363525390625,0.2462158203125,0.04632568359375,0.7296142578125,-3.84765625,-4.38671875,1.72265625
1,1828314245,0.636474609375,0.2427978515625,0.04864501953125,0.73046875,-3.68359375,-4.35546875,1.66015625
1,1828318295,0.63653564453125,0.23944091796875,0.0509033203125,0.73138427734375,-3.68359375,-4.35546875,1.66015625
1,1828326245,0.63671875,0.23345947265625,0.05474853515625,0.73284912109375,-3.50390625,-4.1328125,1.76171875
1,1828334245,0.63690185546875,0.23046875,0.05657958984375,0.7335205078125,-3.36328125,-3.91015625,1.8515625
1,1828338291,0.6370849609375,0.22772216796875,0.05810546875,0.73406982421875,-3.36328125,-3.91015625,1.8515625
1,1828346245,0.637451171875,0.22344970703125,0.0601806640625,0.73492431640625,-3.171875,-3.59375,1.65234375
1,1828354245,0.6375732421875,0.2215576171875,0.06097412109375,0.73529052734375,-3.1171875,-3.36328125,1.5546875
1,1828358291,0.6376953125,0.22003173828125,0.0614013671875,0.73565673828125,-3.1171875,-3.36328125,1.5546875
1,1828368245,0.6376953125,0.21820068359375,0.0616455078125,0.73614501953125,-3.07421875,-3.28515625,1.5390625
1,1828372291,0.63751220703125,0.21771240234375,0.06146240234375,0.7364501953125,-3.07421875,-3.28515625,1.5390625
1,1828376307,0.63726806640625,0.2176513671875,0.0611572265625,0.7366943359375,-3.07421875,-3.28515625,1.5390625
1,1828386269,0.63690185546875,0.2176513671875,0.0609130859375,0.737060546875,-2.984375,-3.26171875,1.4453125
1,1828389290,0.636474609375,0.218017578125,0.060546875,0.73736572265625,-2.984375,-3.26171875,1.4453125
1,1828393283,0.6358642578125,0.21868896484375,0.06011962890625,0.73773193359375,-2.984375,-3.26171875,1.4453125
1,1828403251,0.6353759765625,0.21893310546875,0.060302734375,0.738037109375,-3.01953125,-3.27734375,1.0078125
1,1828407290,0.63421630859375,0.2210693359375,0.0596923828125,0.73846435546875,-3.01953125,-3.27734375,1.0078125
1,1828412289,0.63372802734375,0.22216796875,0.05950927734375,0.73858642578125,-3.01953125,-3.27734375,1.0078125
1,1828417245,0.63348388671875,0.222900390625,0.05987548828125,0.738525390625,-2.96875,-3.35546875,1.27734375
1,1828424245,0.63330078125,0.2236328125,0.06036376953125,0.7384033203125,-2.9765625,-3.32421875,1.0390625
1,1828428289,0.633056640625,0.22503662109375,0.060546875,0.73822021484375,-2.9765625,-3.32421875,1.0390625
1,1828431289,0.6329345703125,0.22637939453125,0.060791015625,0.7379150390625,-2.9765625,-3.32421875,1.0390625
1,1828437245,0.63299560546875,0.22698974609375,0.0615234375,0.737548828125,-2.9453125,-3.26171875,0.9296875
1,1828444245,0.6331787109375,0.22784423828125,0.06231689453125,0.73712158203125,-2.83984375,-3.00390625,0.7109375
1,1828448291,0.63323974609375,0.22918701171875,0.062744140625,0.736572265625,-2.83984375,-3.00390625,0.7109375
1,1828451291,0.63323974609375,0.23046875,0.063232421875,0.73614501953125,-2.83984375,-3.00390625,0.7109375
1,1828458245,0.6334228515625,0.23095703125,0.0640869140625,0.73577880859375,-2.67578125,-3.1796875,1.1015625
1,1828466248,0.633544921875,0.23175048828125,0.06500244140625,0.7353515625,-2.63671875,-3.26171875,1.21484375
1,1828469291,0.63348388671875,0.23260498046875,0.06549072265625,0.73504638671875,-2.63671875,-3.26171875,1.21484375
1,1828472294,0.63330078125,0.233642578125,0.06610107421875,0.73480224609375,-2.63671875,-3.26171875,1.21484375
1,1828479245,0.63330078125,0.23394775390625,0.06689453125,0.73468017578125,-2.69921875,-3.32421875,1.26171875
1,1828483289,0.6329345703125,0.23480224609375,0.06744384765625,0.734619140625,-2.69921875,-3.32421875,1.26171875
1,1828487289,0.632568359375,0.23553466796875,0.06787109375,0.73468017578125,-2.69921875,-3.32421875,1.26171875
1,1828491289,0.6322021484375,0.236083984375,0.068115234375,0.73480224609375,-2.69921875,-3.32421875,1.26171875
1,1828497244,0.6317138671875,0.2364501953125,0.068603515625,0.73504638671875,-2.79296875,-3.30078125,1.1171875
1,1828504245,0.63134765625,0.2366943359375,0.06890869140625,0.73529052734375,-2.9921875,-3.08203125,0.80078125
1,1828508290,0.63079833984375,0.2374267578125,0.0687255859375,0.73553466796875,-2.9921875,-3.08203125,0.80078125
1,1828516245,0.63037109375,0.23773193359375,0.06866455078125,0.73577880859375,-3.09765625,-3.1171875,0.9921875
1,1828519287,0.6300048828125,0.23834228515625,0.0682373046875,0.7359619140625,-3.09765625,-3.1171875,0.9921875
1,1828523289,0.629638671875,0.23907470703125,0.0677490234375,0.736083984375,-3.09765625,-3.1171875,0.9921875
1,1828527289,0.62933349609375,0.2398681640625,0.0670166015625,0.73614501953125,-3.09765625,-3.1171875,0.9921875
1,1828531289,0.629150390625,0.24041748046875,0.0665283203125,0.73614501953125,-3.09765625,-3.1171875,0.9921875
1,1828537256,0.62908935546875,0.24090576171875,0.06597900390625,0.736083984375,-3.3125,-2.92578125,1.1328125
1,1828544245,0.62908935546875,0.2412109375,0.06573486328125,0.73602294921875,-3.328125,-2.66015625,1.046875
1,1828548290,0.6290283203125,0.2420654296875,0.06500244140625,0.73583984375,-3.328125,-2.66015625,1.046875
1,1828555264,0.6290283203125,0.24261474609375,0.06463623046875,0.7357177734375,-3.296875,-2.48828125,0.84765625
1,1828558288,0.62896728515625,0.243408203125,0.0640869140625,0.73553466796875,-3.296875,-2.48828125,0.84765625
1,1828565245,0.62884521484375,0.24420166015625,0.06365966796875,0.73541259765625,-3.3203125,-2.2734375,0.76171875
1,1828568291,0.62860107421875,0.2451171875,0.06317138671875,0.73541259765625,-3.3203125,-2.2734375,0.76171875
1,1828576245,0.62823486328125,0.24609375,0.062744140625,0.73541259765625,-3.17578125,-2.92578125,1.109375
1,1828579291,0.6278076171875,0.2470703125,0.06231689453125,0.7354736328125,-3.17578125,-2.92578125,1.109375
1,1828582291,0.627197265625,0.24810791015625,0.0618896484375,0.73565673828125,-3.17578125,-2.92578125,1.109375
1,1828586291,0.62646484375,0.24920654296875,0.06146240234375,0.7359619140625,-3.17578125,-2.92578125,1.109375
1,1828593245,0.6256103515625,0.2501220703125,0.061279296875,0.73638916015625,-3.25390625,-2.95703125,1.25390625
1,1828600248,0.62481689453125,0.25079345703125,0.0611572265625,0.73687744140625,-3.26953125,-2.96484375,0.90625
1,1828603317,0.62408447265625,0.25146484375,0.06085205078125,0.73724365234375,-3.26953125,-2.96484375,0.90625
1,1828607291,0.623046875,0.2523193359375,0.06048583984375,0.7379150390625,-3.26953125,-2.96484375,0.90625
1,1828614245,0.622314453125,0.2525634765625,0.06036376953125,0.7384033203125,-3.3984375,-2.87890625,0.86328125
1,1828618289,0.62139892578125,0.25323486328125,0.0599365234375,0.739013671875,-3.3984375,-2.87890625,0.86328125
1,1828622296,0.62060546875,0.253662109375,0.0595703125,0.73956298828125,-3.3984375,-2.87890625,0.86328125
1,1828628265,0.62017822265625,0.253662109375,0.05938720703125,0.73992919921875,-3.4140625,-2.671875,1.19921875
1,1828632308,0.61956787109375,0.25396728515625,0.05889892578125,0.74041748046875,-3.4140625,-2.671875,1.19921875
1,1828640257,0.619384765625,0.25384521484375,0.05865478515625,0.7406005859375,-3.3828125,-2.46484375,1.23046875
1,1828643289,0.619140625,0.25390625,0.05816650390625,0.74078369140625,-3.3828125,-2.46484375,1.23046875
1,1828647289,0.61907958984375,0.25396728515625,0.05767822265625,0.74090576171875,-3.3828125,-2.46484375,1.23046875
1,1828654245,0.61920166015625,0.2537841796875,0.05718994140625,0.74090576171875,-3.375,-2.47265625,1.51171875
1,1828658289,0.6192626953125,0.25390625,0.05657958984375,0.7408447265625,-3.375,-2.47265625,1.51171875
1,1828661289,0.61944580078125,0.254150390625,0.05572509765625,0.74066162109375,-3.375,-2.47265625,1.51171875
1,1828667245,0.61956787109375,0.25408935546875,0.0552978515625,0.7406005859375,-3.33203125,-2.47265625,1.6875
1,1828675245,0.6197509765625,0.25421142578125,0.05462646484375,0.740478515625,-3.5234375,-2.53125,1.56640625
1,1828678289,0.61968994140625,0.25457763671875,0.05389404296875,0.740478515625,-3.5234375,-2.53125,1.56640625
1,1828681289,0.61956787109375,0.2548828125,0.05316162109375,0.740478515625,-3.5234375,-2.53125,1.56640625
1,1828688245,0.61944580078125,0.25494384765625,0.05267333984375,0.7406005859375,-3.765625,-2.5546875,1.3125
1,1828692289,0.619140625,0.25518798828125,0.0521240234375,0.7408447265625,-3.765625,-2.5546875,1.3125
1,1828699245,0.61883544921875,0.25506591796875,0.0517578125,0.74114990234375,-3.765625,-2.59375,0.8125
1,1828703299,0.618408203125,0.25506591796875,0.0513916015625,0.74151611328125,-3.765625,-2.59375,0.8125
1,1828707290,0.61798095703125,0.2548828125,0.05120849609375,0.741943359375,-3.765625,-2.59375,0.8125
1,1828714261,0.61767578125,0.25433349609375,0.05126953125,0.742431640625,-3.66796875,-2.78515625,0.8671875
1,1828717323,0.61737060546875,0.2537841796875,0.0513916015625,0.74285888671875,-3.66796875,-2.78515625,0.8671875
1,1828721285,0.61712646484375,0.25299072265625,0.0517578125,0.7432861328125,-3.66796875,-2.78515625,0.8671875
1,1828727242,0.6173095703125,0.25115966796875,0.0528564453125,0.74371337890625,-3.55078125,-2.9453125,0.859375
1,1828735242,0.6175537109375,0.24908447265625,0.05419921875,0.7440185546875,-3.40625,-3.203125,1.00390625
1,1828738285,0.6177978515625,0.247802734375,0.05523681640625,0.7442626953125,-3.40625,-3.203125,1.00390625
1,1828741285,0.6180419921875,0.24639892578125,0.05633544921875,0.744384765625,-3.40625,-3.203125,1.00390625
1,1828748242,0.61859130859375,0.24420166015625,0.05804443359375,0.74456787109375,-3.37109375,-3.31640625,0.953125
1,1828752285,0.61895751953125,0.2427978515625,0.059326171875,0.74462890625,-3.37109375,-3.31640625,0.953125
1,1828759245,0.6195068359375,0.24066162109375,0.0611572265625,0.74468994140625,-3.40234375,-3.38671875,1.11328125
1,1828767245,0.6202392578125,0.23736572265625,0.06396484375,0.74493408203125,-3.32421875,-3.33984375,1.14453125
1,1828774265,0.62054443359375,0.2354736328125,0.06549072265625,0.74505615234375,-3.20703125,-3.171875,1.13671875
1,1828778289,0.62066650390625,0.23455810546875,0.06634521484375,0.7452392578125,-3.20703125,-3.171875,1.13671875
1,1828781316,0.62078857421875,0.233642578125,0.06707763671875,0.745361328125,-3.20703125,-3.171875,1.13671875
1,1828788245,0.6209716796875,0.23223876953125,0.06805419921875,0.74554443359375,-3.11328125,-3.03515625,1.2890625
1,1828792289,0.62103271484375,0.23162841796875,0.06842041015625,0.74566650390625,-3.11328125,-3.03515625,1.2890625
1,1828798245,0.62115478515625,0.23052978515625,0.06903076171875,0.745849609375,-3.10546875,-3.01953125,1.34765625
1,1828802323,0.62109375,0.23016357421875,0.069091796875,0.7459716796875,-3.10546875,-3.01953125,1.34765625
1,1828806289,0.62103271484375,0.22991943359375,0.06903076171875,0.74615478515625,-3.10546875,-3.01953125,1.34765625
1,1828813245,0.62103271484375,0.22906494140625,0.06927490234375,0.746337890625,-2.9453125,-3.0625,1.65625
1,1828817290,0.62091064453125,0.2288818359375,0.069091796875,0.74652099609375,-2.9453125,-3.0625,1.65625
1,1828820285,0.6207275390625,0.228759765625,0.0689697265625,0.7467041015625,-2.9453125,-3.0625,1.65625
1,1828827246,0.6207275390625,0.22802734375,0.06915283203125,0.7469482421875,-2.98828125,-2.80078125,0.94921875
1,1828835245,0.62078857421875,0.22723388671875,0.06951904296875,0.74713134765625,-3.05078125,-2.44140625,-0.4375
1,1828838289,0.6207275390625,0.22698974609375,0.06964111328125,0.7471923828125,-3.05078125,-2.44140625,-0.4375
1,1828842289,0.6207275390625,0.2265625,0.0699462890625,0.74725341796875,-3.05078125,-2.44140625,-0.4375
1,1828846295,0.620849609375,0.22607421875,0.07049560546875,0.747314453125,-3.05078125,-2.44140625,-0.4375
1,1828853253,0.62115478515625,0.224853515625,0.07147216796875,0.747314453125,-2.99609375,-2.83203125,0.8984375
1,1828857293,0.6214599609375,0.22381591796875,0.0726318359375,0.74725341796875,-2.99609375,-2.83203125,0.8984375
1,1828860291,0.62188720703125,0.222412109375,0.07415771484375,0.7471923828125,-2.99609375,-2.83203125,0.8984375
1,1828866250,0.62249755859375,0.22021484375,0.07623291015625,0.74713134765625,-2.6953125,-3.23828125,1.42578125
1,1828873245,0.6231689453125,0.21783447265625,0.07843017578125,0.74700927734375,-2.6484375,-3.4609375,1.35546875
1,1828877289,0.62396240234375,0.215576171875,0.08074951171875,0.74676513671875,-2.6484375,-3.4609375,1.35546875
1,1828885245,0.6258544921875,0.21124267578125,0.0849609375,0.7459716796875,-2.22265625,-3.51953125,1.48046875
1,1828893245,0.6270751953125,0.2091064453125,0.0869140625,0.74530029296875,-1.87890625,-3.26953125,1.71484375
1,1828897289,0.62841796875,0.20758056640625,0.08843994140625,0.74444580078125,-1.87890625,-3.26953125,1.71484375
1,1828905245,0.63092041015625,0.205078125,0.09075927734375,0.74267578125,-1.62890625,-3.05859375,1.984375
1,1828913245,0.63226318359375,0.203857421875,0.0916748046875,0.7418212890625,-1.55078125,-2.875,1.76171875
1,1828917294,0.63336181640625,0.20318603515625,0.09222412109375,0.74102783203125,-1.55078125,-2.875,1.76171875
1,1828927245,0.63494873046875,0.201904296875,0.0928955078125,0.7398681640625,-1.87890625,-2.61328125,0.9140625
1,1828932290,0.635498046875,0.20166015625,0.09295654296875,0.739501953125,-1.87890625,-2.61328125,0.9140625
1,1828936293,0.63580322265625,0.20147705078125,0.0928955078125,0.73931884765625,-1.87890625,-2.61328125,0.9140625
1,1828946255,0.635986328125,0.200927734375,0.09295654296875,0.7392578125,-2.015625,-2.67578125,0.859375
1,1828949287,0.63604736328125,0.20086669921875,0.0927734375,0.7392578125,-2.015625,-2.67578125,0.859375
1,1828952284,0.63604736328125,0.20062255859375,0.09271240234375,0.73931884765625,-2.015625,-2.67578125,0.859375
1,1828956288,0.635986328125,0.20025634765625,0.0926513671875,0.73944091796875,-2.015625,-2.67578125,0.859375
1,1828967245,0.63604736328125,0.19891357421875,0.093017578125,0.73974609375,-2.1328125,-2.75,1.41796875
1,1828971288,0.63616943359375,0.19818115234375,0.09326171875,0.7398681640625,-2.1328125,-2.75,1.41796875
1,1828977245,0.6363525390625,0.1971435546875,0.0936279296875,0.7398681640625,-1.87109375,-2.6640625,1.79296875
1,1828981288,0.6365966796875,0.19635009765625,0.0938720703125,0.7398681640625,-1.87109375,-2.6640625,1.79296875
1,1828988245,0.63690185546875,0.19537353515625,0.09417724609375,0.73980712890625,-1.65625,-2.640625,2.09765625
1,1828992291,0.63726806640625,0.1947021484375,0.09442138671875,0.7396240234375,-1.65625,-2.640625,2.09765625
1,1829000245,0.63775634765625,0.1937255859375,0.0947265625,0.73944091796875,-1.5078125,-2.92578125,2.47265625
1,1829003293,0.63812255859375,0.1932373046875,0.0948486328125,0.73919677734375,-1.5078125,-2.92578125,2.47265625
1,1829007291,0.638671875,0.1927490234375,0.09490966796875,0.7388916015625,-1.5078125,-2.92578125,2.47265625
1,1829011291,0.63916015625,0.19232177734375,0.094970703125,0.738525390625,-1.5078125,-2.92578125,2.47265625
1,1829017259,0.6397705078125,0.191650390625,0.09515380859375,0.73822021484375,-1.5078125,-3.0,2.3046875
1,1829021288,0.64044189453125,0.1912841796875,0.09521484375,0.73773193359375,-1.5078125,-3.0,2.3046875
1,1829028250,0.64111328125,0.19061279296875,0.0953369140625,0.7373046875,-1.828125,-2.83984375,1.578125
1,1829032290,0.64190673828125,0.19012451171875,0.09539794921875,0.7366943359375,-1.828125,-2.83984375,1.578125
1,1829040245,0.64300537109375,0.1881103515625,0.0960693359375,0.73614501953125,-1.99609375,-2.53125,0.99609375
1,1829043291,0.64385986328125,0.18756103515625,0.09613037109375,0.73553466796875,-1.99609375,-2.53125,0.99609375
1,1829047291,0.64508056640625,0.1866455078125,0.0963134765625,0.73468017578125,-1.99609375,-2.53125,0.99609375
1,1829051291,0.64630126953125,0.185546875,0.09661865234375,0.73382568359375,-1.99609375,-2.53125,0.99609375
1,1829057245,0.647705078125,0.18304443359375,0.09747314453125,0.73309326171875,-1.65625,-2.23828125,0.89453125
1,1829061297,0.64947509765625,0.1812744140625,0.09808349609375,0.73193359375,-1.65625,-2.23828125,0.89453125
1,1829068245,0.651123046875,0.178466796875,0.09918212890625,0.73101806640625,-1.35546875,-2.0625,1.27734375
1,1829071291,0.653076171875,0.17633056640625,0.10003662109375,0.7296142578125,-1.35546875,-2.0625,1.27734375
1,1829078245,0.655029296875,0.1734619140625,0.101318359375,0.72845458984375,-0.6953125,-2.328125,1.77734375
1,1829085245,0.65740966796875,0.1702880859375,0.10272216796875,0.726806640625,-0.54296875,-2.3125,1.9375
1,1829088291,0.65960693359375,0.1685791015625,0.10369873046875,0.72509765625,-0.54296875,-2.3125,1.9375
1,1829092291,0.66180419921875,0.1671142578125,0.10443115234375,0.72332763671875,-0.54296875,-2.3125,1.9375
1,1829100245,0.66424560546875,0.1649169921875,0.1053466796875,0.721435546875,-0.08203125,-2.2109375,2.04296875
1,1829103291,0.6661376953125,0.16424560546875,0.1055908203125,0.71978759765625,-0.08203125,-2.2109375,2.04296875
1,1829107291,0.66845703125,0.163818359375,0.10552978515625,0.7177734375,-0.08203125,-2.2109375,2.04296875
1,1829111291,0.67047119140625,0.16375732421875,0.1051025390625,0.71600341796875,-0.08203125,-2.2109375,2.04296875
1,1829118245,0.67205810546875,0.16302490234375,0.10479736328125,0.7147216796875,-0.05859375,-1.828125,1.60546875
1,1829122295,0.67376708984375,0.16351318359375,0.1036376953125,0.713134765625,-0.05859375,-1.828125,1.60546875
1,1829126291,0.67498779296875,0.16412353515625,0.10235595703125,0.7120361328125,-0.05859375,-1.828125,1.60546875
1,1829132245,0.67596435546875,0.16375732421875,0.10150146484375,0.7113037109375,-0.36328125,-1.578125,1.22265625
1,1829136293,0.6767578125,0.1644287109375,0.09979248046875,0.71063232421875,-0.36328125,-1.578125,1.22265625
1,1829143245,0.6773681640625,0.16400146484375,0.09869384765625,0.7103271484375,-0.50390625,-1.48046875,0.94140625
1,1829147291,0.677734375,0.16436767578125,0.0970458984375,0.7100830078125,-0.50390625,-1.48046875,0.94140625
1,1829155245,0.67816162109375,0.16375732421875,0.0958251953125,0.71002197265625,-0.45703125,-1.6328125,0.91796875
1,1829158289,0.67840576171875,0.163818359375,0.09454345703125,0.7099609375,-0.45703125,-1.6328125,0.91796875
1,1829162297,0.6787109375,0.1636962890625,0.09320068359375,0.7098388671875,-0.45703125,-1.6328125,0.91796875
1,1829166292,0.67919921875,0.1634521484375,0.0916748046875,0.7095947265625,-0.45703125,-1.6328125,0.91796875
1,1829170291,0.67974853515625,0.16326904296875,0.09051513671875,0.7093505859375,-0.45703125,-1.6328125,0.91796875
1,1829176247,0.6807861328125,0.162109375,0.08917236328125,0.708740234375,-0.3515625,-1.921875,1.0234375
1,1829183246,0.6817626953125,0.1611328125,0.08819580078125,0.7081298828125,-0.16796875,-2.1953125,1.046875
1,1829187294,0.68328857421875,0.1610107421875,0.08642578125,0.7069091796875,-0.16796875,-2.1953125,1.046875
1,1829195245,0.68511962890625,0.16033935546875,0.0848388671875,0.70550537109375,0.15234375,-2.15625,1.0234375
1,1829198291,0.686767578125,0.16058349609375,0.08319091796875,0.70404052734375,0.15234375,-2.15625,1.0234375
1,1829201291,0.68896484375,0.1610107421875,0.0810546875,0.7020263671875,0.15234375,-2.15625,1.0234375
1,1829205291,0.69146728515625,0.16168212890625,0.07867431640625,0.69964599609375,0.15234375,-2.15625,1.0234375
1,1829212245,0.69464111328125,0.1619873046875,0.07586669921875,0.69677734375,0.40625,-1.6640625,0.77734375
1,1829219246,0.69769287109375,0.162353515625,0.07318115234375,0.69390869140625,0.59765625,-1.26953125,0.5625
1,1829222289,0.7001953125,0.1632080078125,0.0706787109375,0.69146728515625,0.59765625,-1.26953125,0.5625
1,1829226290,0.70367431640625,0.1644287109375,0.067138671875,0.68798828125,0.59765625,-1.26953125,0.5625
1,1829230289,0.7059326171875,0.16522216796875,0.06475830078125,0.6856689453125,0.59765625,-1.26953125,0.5625
1,1829237245,0.708740234375,0.16534423828125,0.06201171875,0.6829833984375,0.578125,-0.81640625,0.68359375
1,1829241296,0.7115478515625,0.166015625,0.0589599609375,0.68017578125,0.578125,-0.81640625,0.68359375
1,1829250253,0.71331787109375,0.1656494140625,0.0572509765625,0.6785888671875,0.4921875,-0.64453125,0.7265625
1,1829254291,0.715087890625,0.1656494140625,0.05517578125,0.6768798828125,0.4921875,-0.64453125,0.7265625
1,1829257282,0.71636962890625,0.1654052734375,0.053466796875,0.67572021484375,0.4921875,-0.64453125,0.7265625
1,1829261291,0.7174072265625,0.16485595703125,0.0517578125,0.67486572265625,0.4921875,-0.64453125,0.7265625
1,1829265300,0.71783447265625,0.16436767578125,0.05078125,0.67462158203125,0.4921875,-0.64453125,0.7265625
1,1829275245,0.7181396484375,0.16302490234375,0.0496826171875,0.67474365234375,0.0625,-0.54296875,0.7578125
1,1829278296,0.71807861328125,0.16253662109375,0.04888916015625,0.67498779296875,0.0625,-0.54296875,0.7578125
1,1829282294,0.7177734375,0.1619873046875,0.04779052734375,0.67547607421875,0.0625,-0.54296875,0.7578125
1,1829286297,0.71746826171875,0.16180419921875,0.04705810546875,0.6759033203125,0.0625,-0.54296875,0.7578125
1,1829296245,0.7171630859375,0.1612548828125,0.04608154296875,0.6763916015625,0.09765625,-0.21875,0.703125
1,1829299291,0.7169189453125,0.16162109375,0.04486083984375,0.67669677734375,0.09765625,-0.21875,0.703125
1,1829302291,0.716796875,0.16229248046875,0.04339599609375,0.67669677734375,0.09765625,-0.21875,0.703125
1,1829306291,0.71697998046875,0.16326904296875,0.04168701171875,0.67645263671875,0.09765625,-0.21875,0.703125
1,1829312247,0.71746826171875,0.1640625,0.039794921875,0.67584228515625,0.56640625,0.21875,1.09375
1,1829319248,0.71844482421875,0.1654052734375,0.03717041015625,0.67462158203125,0.578125,0.375,1.26171875
1,1829322337,0.7193603515625,0.1668701171875,0.03509521484375,0.67340087890625,0.578125,0.375,1.26171875
1,1829326371,0.72113037109375,0.16937255859375,0.031494140625,0.6710205078125,0.578125,0.375,1.26171875
1,1829334280,0.72265625,0.170654296875,0.029052734375,0.669189453125,0.8515625,0.95703125,1.23828125
1,1829337298,0.72467041015625,0.1729736328125,0.02569580078125,0.66650390625,0.8515625,0.95703125,1.23828125
1,1829340297,0.7269287109375,0.17529296875,0.02215576171875,0.66357421875,0.8515625,0.95703125,1.23828125
1,1829347258,0.72943115234375,0.1771240234375,0.01861572265625,0.66046142578125,0.6015625,1.32421875,1.26171875
1,1829351290,0.7318115234375,0.17926025390625,0.01513671875,0.6573486328125,0.6015625,1.32421875,1.26171875
1,1829358245,0.73419189453125,0.18072509765625,0.0118408203125,0.65435791015625,0.4921875,1.2421875,1.0234375
1,1829362290,0.7364501953125,0.18243408203125,0.00872802734375,0.6513671875,0.4921875,1.2421875,1.0234375
1,1829366288,0.73870849609375,0.1839599609375,0.00579833984375,0.6484375,0.4921875,1.2421875,1.0234375
1,1829373245,0.74090576171875,0.1827392578125,0.0037841796875,0.64630126953125,-0.1640625,1.15234375,0.72265625
1,1829377288,0.74261474609375,0.18341064453125,0.00177001953125,0.64410400390625,-0.1640625,1.15234375,0.72265625
1,1829380289,0.744140625,0.183837890625,0.00018310546875,0.64227294921875,-0.1640625,1.15234375,0.72265625
1,1829386245,0.74560546875,0.18182373046875,-0.00079345703125,0.64111328125,-0.42578125,1.078125,0.69921875
1,1829394245,0.746826171875,0.17962646484375,-0.00140380859375,0.64031982421875,-0.6015625,0.91015625,0.8125
1,1829397289,0.74755859375,0.17926025390625,-0.001953125,0.6395263671875,-0.6015625,0.91015625,0.8125
1,1829400291,0.74810791015625,0.1787109375,-0.00225830078125,0.6390380859375,-0.6015625,0.91015625,0.8125
1,1829410245,0.7486572265625,0.1761474609375,-0.00201416015625,0.63909912109375,-0.6171875,0.62890625,0.99609375
1,1829413299,0.74896240234375,0.17547607421875,-0.001953125,0.63897705078125,-0.6171875,0.62890625,0.99609375
1,1829416289,0.7491455078125,0.17486572265625,-0.0018310546875,0.638916015625,-0.6171875,0.62890625,0.99609375
1,1829420293,0.74932861328125,0.17437744140625,-0.00177001953125,0.6387939453125,-0.6171875,0.62890625,0.99609375
1,1829429260,0.74969482421875,0.17236328125,-0.0015869140625,0.638916015625,-0.5,0.64453125,0.875
1,1829432289,0.74993896484375,0.17242431640625,-0.00189208984375,0.638671875,-0.5,0.64453125,0.875
1,1829435288,0.750244140625,0.1727294921875,-0.00250244140625,0.63818359375,-0.5,0.64453125,0.875
1,1829441245,0.75079345703125,0.1717529296875,-0.00311279296875,0.6378173828125,-0.41015625,1.02734375,0.5546875
1,1829448289,0.7513427734375,0.17279052734375,-0.0042724609375,0.63690185546875,-0.41015625,1.02734375,0.5546875
1,1829452289,0.75189208984375,0.1739501953125,-0.00567626953125,0.6358642578125,-0.41015625,1.02734375,0.5546875
1,1829455289,0.752685546875,0.17547607421875,-0.00738525390625,0.63458251953125,-0.41015625,1.02734375,0.5546875
1,1829462245,0.75360107421875,0.175537109375,-0.009033203125,0.63336181640625,-0.3671875,1.6328125,0.375
1,1829466289,0.75457763671875,0.17724609375,-0.010986328125,0.63177490234375,-0.3671875,1.6328125,0.375
1,1829474245,0.7557373046875,0.1776123046875,-0.012939453125,0.63018798828125,-0.19140625,1.95703125,0.60546875
1,1829477287,0.75689697265625,0.17950439453125,-0.01519775390625,0.628173828125,-0.19140625,1.95703125,0.60546875
1,1829481297,0.75811767578125,0.18133544921875,-0.017333984375,0.62615966796875,-0.19140625,1.95703125,0.60546875
1,1829485295,0.75933837890625,0.18316650390625,-0.01953125,0.62408447265625,-0.19140625,1.95703125,0.60546875
1,1829492245,0.7606201171875,0.18353271484375,-0.021484375,0.622314453125,-0.08984375,2.40625,0.4296875
1,1829496291,0.76190185546875,0.18536376953125,-0.02374267578125,0.6201171875,-0.08984375,2.40625,0.4296875
1,1829499293,0.76318359375,0.18719482421875,-0.02606201171875,0.617919921875,-0.08984375,2.40625,0.4296875
1,1829505245,0.764404296875,0.1876220703125,-0.02813720703125,0.6162109375,-0.25390625,2.62109375,0.4609375
1,1829514245,0.76544189453125,0.18798828125,-0.03009033203125,0.61468505859375,-0.19140625,2.859375,0.8125
1,1829517294,0.766357421875,0.18975830078125,-0.0323486328125,0.6129150390625,-0.19140625,2.859375,0.8125
1,1829520294,0.76702880859375,0.19146728515625,-0.03448486328125,0.61138916015625,-0.19140625,2.859375,0.8125
1,1829527245,0.767578125,0.191650390625,-0.0362548828125,0.61053466796875,-0.5390625,2.921875,0.5
1,1829531296,0.767822265625,0.19317626953125,-0.03814697265625,0.609619140625,-0.5390625,2.921875,0.5
1,1829534291,0.76788330078125,0.1947021484375,-0.03985595703125,0.6090087890625,-0.5390625,2.921875,0.5
1,1829541245,0.767822265625,0.19500732421875,-0.04132080078125,0.60888671875,-0.703125,2.8984375,0.4140625
1,1829544291,0.7674560546875,0.19659423828125,-0.04278564453125,0.60870361328125,-0.703125,2.8984375,0.4140625
1,1829551245,0.76708984375,0.1968994140625,-0.04388427734375,0.6090087890625,-0.88671875,2.8515625,0.328125
1,1829555289,0.76641845703125,0.19873046875,-0.0452880859375,0.609130859375,-0.88671875,2.8515625,0.328125
1,1829562259,0.76593017578125,0.19915771484375,-0.04620361328125,0.609619140625,-1.10546875,2.8828125,-0.046875
1,1829565289,0.76519775390625,0.20098876953125,-0.04730224609375,0.60980224609375,-1.10546875,2.8828125,-0.046875
1,1829572249,0.7646484375,0.20159912109375,-0.04815673828125,0.6102294921875,-1.2421875,2.96875,-0.0546875
1,1829576287,0.7640380859375,0.2034912109375,-0.0491943359375,0.61029052734375,-1.2421875,2.96875,-0.0546875
1,1829584271,0.76324462890625,0.2061767578125,-0.0509033203125,0.6102294921875,-0.9296875,3.13671875,0.14453125
1,1829592242,0.7630615234375,0.2071533203125,-0.0517578125,0.61004638671875,-0.83984375,3.37890625,0.0234375
1,1829596288,0.762939453125,0.209228515625,-0.052734375,0.609375,-0.83984375,3.37890625,0.0234375
1,1829604257,0.76312255859375,0.2120361328125,-0.054443359375,0.6080322265625,-0.671875,3.73046875,-0.27734375
1,1829612244,0.763427734375,0.21307373046875,-0.05523681640625,0.60723876953125,-0.7421875,3.6640625,-0.3515625
1,1829616289,0.763671875,0.21514892578125,-0.05621337890625,0.6060791015625,-0.7421875,3.6640625,-0.3515625
1,1829626247,0.76416015625,0.21783447265625,-0.05755615234375,0.6043701171875,-0.70703125,3.515625,-0.23828125
1,1829630293,0.7642822265625,0.21978759765625,-0.0582275390625,0.60345458984375,-0.70703125,3.515625,-0.23828125
1,1829634297,0.76434326171875,0.22137451171875,-0.05865478515625,0.602783203125,-0.70703125,3.515625,-0.23828125
1,1829644253,0.76434326171875,0.22216796875,-0.05889892578125,0.60247802734375,-0.9765625,3.30078125,-0.58203125
1,1829647289,0.76409912109375,0.22357177734375,-0.05914306640625,0.6021728515625,-0.9765625,3.30078125,-0.58203125
1,1829651288,0.763671875,0.22509765625,-0.05926513671875,0.6021728515625,-0.9765625,3.30078125,-0.58203125
1,1829661251,0.76318359375,0.2255859375,-0.059326171875,0.60260009765625,-1.18359375,2.94921875,0.03125
1,1829665289,0.7615966796875,0.2281494140625,-0.0596923828125,0.60357666015625,-1.18359375,2.94921875,0.03125
1,1829672245,0.76080322265625,0.2283935546875,-0.059814453125,0.6044921875,-1.4296875,2.9921875,0.30859375
1,1829676289,0.75958251953125,0.2298583984375,-0.06024169921875,0.60546875,-1.4296875,2.9921875,0.30859375
1,1829684245,0.75811767578125,0.22308349609375,-0.06036376953125,0.60980224609375,-1.63671875,3.2734375,0.1171875
1,1829691245,0.757568359375,0.21661376953125,-0.0604248046875,0.61279296875,-1.83984375,3.48046875,-0.15234375
1,1829699245,0.75665283203125,0.211669921875,-0.0609130859375,0.6156005859375,-1.984375,3.734375,-0.3828125
1,1829702289,0.75531005859375,0.2135009765625,-0.06219482421875,0.61651611328125,-1.984375,3.734375,-0.3828125
1,1829706289,0.75360107421875,0.21600341796875,-0.06402587890625,0.61749267578125,-1.984375,3.734375,-0.3828125
1,1829710289,0.7520751953125,0.2183837890625,-0.06585693359375,0.61834716796875,-1.984375,3.734375,-0.3828125
1,1829716254,0.75146484375,0.2142333984375,-0.06683349609375,0.6204833984375,-2.2265625,4.0546875,-1.00390625
1,1829720295,0.7498779296875,0.21697998046875,-0.06903076171875,0.62115478515625,-2.2265625,4.0546875,-1.00390625
1,1829727283,0.74932861328125,0.21343994140625,-0.070068359375,0.6229248046875,-2.2890625,4.13671875,-0.91796875
1,1829731309,0.74810791015625,0.2158203125,-0.0718994140625,0.62335205078125,-2.2890625,4.13671875,-0.91796875
1,1829738255,0.7474365234375,0.21331787109375,-0.0732421875,0.6248779296875,-2.0,3.90234375,0.015625
1,1829741289,0.74658203125,0.2152099609375,-0.0745849609375,0.6251220703125,-2.0,3.90234375,0.015625
1,1829745289,0.74560546875,0.2174072265625,-0.07611083984375,0.62530517578125,-2.0,3.90234375,0.015625
1,1829749289,0.74493408203125,0.218994140625,-0.07720947265625,0.62542724609375,-2.0,3.90234375,0.015625
1,1829756245,0.74456787109375,0.21624755859375,-0.07781982421875,0.626708984375,-2.15625,3.80859375,0.203125
1,1829765245,0.74365234375,0.21490478515625,-0.07916259765625,0.62811279296875,-2.38671875,3.984375,0.0078125
1,1829769289,0.7427978515625,0.21636962890625,-0.080322265625,0.62841796875,-2.38671875,3.984375,0.0078125
1,1829776245,0.7423095703125,0.21392822265625,-0.08099365234375,0.6297607421875,-2.76953125,4.49609375,0.0546875
1,1829784245,0.74151611328125,0.21209716796875,-0.08221435546875,0.63116455078125,-2.87890625,4.640625,0.1875
1,1829787287,0.7406005859375,0.21337890625,-0.08355712890625,0.63165283203125,-2.87890625,4.640625,0.1875
1,1829794251,0.73956298828125,0.21160888671875,-0.0849609375,0.63323974609375,-3.1015625,5.015625,0.42578125
1,1829797287,0.73828125,0.212890625,-0.0867919921875,0.63409423828125,-3.1015625,5.015625,0.42578125
1,1829801339,0.7369384765625,0.21405029296875,-0.088623046875,0.635009765625,-3.1015625,5.015625,0.42578125
1,1829805293,0.7354736328125,0.21514892578125,-0.090576171875,0.6361083984375,-3.1015625,5.015625,0.42578125
1,1829809294,0.73419189453125,0.2159423828125,-0.09222412109375,0.63702392578125,-3.1015625,5.015625,0.42578125
1,1829815250,0.73272705078125,0.21368408203125,-0.0941162109375,0.63922119140625,-3.76953125,5.0703125,0.1171875
1,1829822245,0.731689453125,0.21142578125,-0.0953369140625,0.64093017578125,-3.84765625,5.046875,-0.5703125
1,1829826285,0.72998046875,0.21246337890625,-0.09783935546875,0.6422119140625,-3.84765625,5.046875,-0.5703125
1,1829834245,0.72882080078125,0.21063232421875,-0.099609375,0.64385986328125,-4.02734375,4.7265625,-0.9296875
1,1829837284,0.72772216796875,0.21148681640625,-0.1014404296875,0.64447021484375,-4.02734375,4.7265625,-0.9296875
1,1829840290,0.7266845703125,0.21246337890625,-0.1036376953125,0.64501953125,-4.02734375,4.7265625,-0.9296875
1,1829844288,0.725830078125,0.21343994140625,-0.105712890625,0.64532470703125,-4.02734375,4.7265625,-0.9296875
1,1829854245,0.7254638671875,0.21173095703125,-0.10748291015625,0.64605712890625,-4.01171875,4.421875,-1.0234375
1,1829857288,0.72515869140625,0.21246337890625,-0.10906982421875,0.64581298828125,-4.01171875,4.421875,-1.0234375
1,1829861289,0.72515869140625,0.21331787109375,-0.11090087890625,0.645263671875,-4.01171875,4.421875,-1.0234375
1,1829865288,0.72540283203125,0.2139892578125,-0.11236572265625,0.64447021484375,-4.01171875,4.421875,-1.0234375
1,1829874250,0.72607421875,0.21173095703125,-0.11279296875,0.6444091796875,-3.9765625,4.03125,-0.76171875
1,1829878289,0.72674560546875,0.212158203125,-0.1138916015625,0.643310546875,-3.9765625,4.03125,-0.76171875
1,1829881288,0.72747802734375,0.2125244140625,-0.11468505859375,0.64227294921875,-3.9765625,4.03125,-0.76171875
1,1829885288,0.72833251953125,0.212890625,-0.115478515625,0.6409912109375,-3.9765625,4.03125,-0.76171875
1,1829895270,0.72918701171875,0.21063232421875,-0.115478515625,0.64080810546875,-3.80859375,4.8828125,-0.09375
1,1829899291,0.729736328125,0.2109375,-0.115966796875,0.63995361328125,-3.80859375,4.8828125,-0.09375
1,1829903291,0.73004150390625,0.2113037109375,-0.11639404296875,0.639404296875,-3.80859375,4.8828125,-0.09375
1,1829906291,0.73016357421875,0.211669921875,-0.11688232421875,0.6390380859375,-3.80859375,4.8828125,-0.09375
1,1829913245,0.730224609375,0.21002197265625,-0.116943359375,0.6395263671875,-3.7265625,5.171875,-0.203125
1,1829916291,0.7298583984375,0.2105712890625,-0.11737060546875,0.6396484375,-3.7265625,5.171875,-0.203125
1,1829920293,0.72900390625,0.21148681640625,-0.1181640625,0.64019775390625,-3.7265625,5.171875,-0.203125
1,1829924291,0.72821044921875,0.21221923828125,-0.118896484375,0.6407470703125,-3.7265625,5.171875,-0.203125
1,1829931245,0.72711181640625,0.21142578125,-0.11944580078125,0.64215087890625,-3.87890625,5.30078125,-0.953125
1,1829938245,0.72552490234375,0.211181640625,-0.12042236328125,0.64385986328125,-4.05859375,5.2578125,-1.01171875
1,1829941297,0.72418212890625,0.2122802734375,-0.1214599609375,0.644775390625,-4.05859375,5.2578125,-1.01171875
1,1829945289,0.72198486328125,0.21405029296875,-0.123046875,0.6463623046875,-4.05859375,5.2578125,-1.01171875
1,1829952245,0.720703125,0.21343994140625,-0.12371826171875,0.64788818359375,-4.34375,4.98046875,-0.84375
1,1829956289,0.71893310546875,0.2147216796875,-0.12493896484375,0.649169921875,-4.34375,4.98046875,-0.84375
1,1829959290,0.71685791015625,0.216064453125,-0.12628173828125,0.6507568359375,-4.34375,4.98046875,-0.84375
1,1829965247,0.71575927734375,0.21533203125,-0.1265869140625,0.65216064453125,-4.65234375,4.734375,-0.62890625
1,1829973245,0.71453857421875,0.214599609375,-0.12689208984375,0.6536865234375,-4.8515625,4.53515625,-0.390625
1,1829976291,0.71331787109375,0.21514892578125,-0.12738037109375,0.65472412109375,-4.8515625,4.53515625,-0.390625
1,1829979291,0.71234130859375,0.215576171875,-0.12774658203125,0.65557861328125,-4.8515625,4.53515625,-0.390625
1,1829986245,0.711669921875,0.214599609375,-0.12762451171875,0.6566162109375,-4.91015625,4.60546875,-0.3359375
1,1829990289,0.71112060546875,0.21484375,-0.1278076171875,0.65716552734375,-4.91015625,4.60546875,-0.3359375
1,1829997245,0.7108154296875,0.2138671875,-0.12762451171875,0.65777587890625,-4.7265625,4.58984375,-0.3828125
1,1830001289,0.71051025390625,0.21417236328125,-0.1279296875,0.657958984375,-4.7265625,4.58984375,-0.3828125
1,1830005289,0.71038818359375,0.21441650390625,-0.128173828125,0.65802001953125,-4.7265625,4.58984375,-0.3828125
1,1830012245,0.71075439453125,0.2109375,-0.1273193359375,0.65887451171875,-4.34375,4.7265625,-0.30078125
1,1830016292,0.710693359375,0.21142578125,-0.12774658203125,0.65869140625,-4.34375,4.7265625,-0.30078125
1,1830019289,0.710693359375,0.2119140625,-0.1282958984375,0.658447265625,-4.34375,4.7265625,-0.30078125
1,1830025245,0.7109375,0.20953369140625,-0.1279296875,0.65899658203125,-4.25390625,4.6328125,-0.328125
1,1830032245,0.7110595703125,0.2076416015625,-0.12762451171875,0.6595458984375,-4.453125,4.48046875,-0.4765625
1,1830035289,0.710693359375,0.20819091796875,-0.128173828125,0.65960693359375,-4.453125,4.48046875,-0.4765625
1,1830039293,0.71014404296875,0.208740234375,-0.12860107421875,0.65997314453125,-4.453125,4.48046875,-0.4765625
1,1830046262,0.709716796875,0.20721435546875,-0.128173828125,0.6610107421875,-4.8984375,4.16015625,-0.8125
1,1830051289,0.708740234375,0.20758056640625,-0.12835693359375,0.661865234375,-4.8984375,4.16015625,-0.8125
1,1830058245,0.70782470703125,0.20623779296875,-0.127685546875,0.66339111328125,-5.203125,3.90625,-0.8828125
1,1830061291,0.70660400390625,0.20648193359375,-0.12744140625,0.66473388671875,-5.203125,3.90625,-0.8828125
1,1830065291,0.7052001953125,0.20654296875,-0.12701416015625,0.666259765625,-5.203125,3.90625,-0.8828125
1,1830072244,0.70391845703125,0.20526123046875,-0.1258544921875,0.668212890625,-5.49609375,3.34375,-0.62109375
1,1830076291,0.7025146484375,0.2052001953125,-0.125244140625,0.6697998046875,-5.49609375,3.34375,-0.62109375
1,1830079292,0.70111083984375,0.205078125,-0.12445068359375,0.6715087890625,-5.49609375,3.34375,-0.62109375
1,1830086245,0.699951171875,0.20379638671875,-0.12310791015625,0.67333984375,-5.66015625,3.19140625,-0.4765625
1,1830090290,0.69873046875,0.20367431640625,-0.122314453125,0.6748046875,-5.66015625,3.19140625,-0.4765625
1,1830095291,0.6976318359375,0.20355224609375,-0.12152099609375,0.67608642578125,-5.66015625,3.19140625,-0.4765625
1,1830100244,0.69683837890625,0.20257568359375,-0.120361328125,0.67742919921875,-5.5390625,3.3828125,-0.453125
1,1830104291,0.696044921875,0.20257568359375,-0.11968994140625,0.6783447265625,-5.5390625,3.3828125,-0.453125
1,1830112244,0.695556640625,0.20172119140625,-0.11865234375,0.6793212890625,-5.453125,3.98828125,-0.98828125
1,1830115291,0.6949462890625,0.20184326171875,-0.117919921875,0.67999267578125,-5.453125,3.98828125,-0.98828125
1,1830118290,0.69439697265625,0.201904296875,-0.11712646484375,0.6806640625,-5.453125,3.98828125,-0.98828125
1,1830124245,0.69403076171875,0.201171875,-0.11572265625,0.6815185546875,-5.453125,4.32421875,-1.83984375
1,1830132244,0.693603515625,0.20050048828125,-0.1141357421875,0.68243408203125,-5.58203125,4.76953125,-2.453125
1,1830135291,0.6929931640625,0.20037841796875,-0.11236572265625,0.68341064453125,-5.58203125,4.76953125,-2.453125
1,1830139290,0.6922607421875,0.2001953125,-0.11016845703125,0.68450927734375,-5.58203125,4.76953125,-2.453125
1,1830147245,0.691650390625,0.19921875,-0.1072998046875,0.68585205078125,-5.57421875,4.0,-0.58984375
1,1830150290,0.69085693359375,0.19873046875,-0.1041259765625,0.687255859375,-5.57421875,4.0,-0.58984375
1,1830154291,0.68994140625,0.19805908203125,-0.10009765625,0.68902587890625,-5.57421875,4.0,-0.58984375
1,1830160244,0.689208984375,0.19671630859375,-0.095703125,0.6907958984375,-5.5078125,3.03125,0.203125
1,1830164291,0.6881103515625,0.19580078125,-0.0908203125,0.6927490234375,-5.5078125,3.03125,0.203125
1,1830171244,0.687255859375,0.194580078125,-0.086181640625,0.694580078125,-5.7734375,2.86328125,0.265625
1,1830175291,0.68597412109375,0.19403076171875,-0.0811767578125,0.69659423828125,-5.7734375,2.86328125,0.265625
1,1830185244,0.68341064453125,0.19329833984375,-0.072509765625,0.70025634765625,-5.48046875,3.40234375,-0.1796875
1,1830190291,0.68170166015625,0.1937255859375,-0.068603515625,0.7021484375,-5.48046875,3.40234375,-0.1796875
1,1830195244,0.67999267578125,0.1939697265625,-0.06494140625,0.70404052734375,-5.2109375,3.75,-0.828125
1,1830203291,0.67816162109375,0.19488525390625,-0.06207275390625,0.70587158203125,-5.2109375,3.75,-0.828125
1,1830206290,0.6763916015625,0.19580078125,-0.05975341796875,0.70751953125,-5.2109375,3.75,-0.828125
1,1830210291,0.6741943359375,0.19696044921875,-0.0572509765625,0.70947265625,-5.2109375,3.75,-0.828125
1,1830214290,0.6719970703125,0.19818115234375,-0.05499267578125,0.71142578125,-5.2109375,3.75,-0.828125
1,1830226245,0.6680908203125,0.2000732421875,-0.05029296875,0.71490478515625,-5.046875,3.203125,-0.8125
1,1830229290,0.66595458984375,0.2012939453125,-0.04766845703125,0.71673583984375,-5.046875,3.203125,-0.8125
1,1830234291,0.6641845703125,0.20233154296875,-0.04522705078125,0.71820068359375,-5.046875,3.203125,-0.8125
1,1830240244,0.66253662109375,0.20306396484375,-0.04205322265625,0.7197265625,-5.08984375,2.51953125,-0.171875
1,1830247245,0.6611328125,0.20367431640625,-0.0389404296875,0.72100830078125,-5.14453125,2.1953125,-0.0859375
1,1830250290,0.6600341796875,0.2044677734375,-0.03643798828125,0.721923828125,-5.14453125,2.1953125,-0.0859375
1,1830254291,0.65899658203125,0.205322265625,-0.03369140625,0.7227783203125,-5.14453125,2.1953125,-0.0859375
1,1830261245,0.6583251953125,0.20574951171875,-0.03125,0.723388671875,-5.10546875,2.22265625,-0.03125
1,1830265291,0.65771484375,0.20654296875,-0.029052734375,0.72381591796875,-5.10546875,2.22265625,-0.03125
1,1830269291,0.6572265625,0.20733642578125,-0.02728271484375,0.72412109375,-5.10546875,2.22265625,-0.03125
1,1830275245,0.656982421875,0.2076416015625,-0.0257568359375,0.72430419921875,-4.94921875,2.3828125,-0.26953125
1,1830279291,0.6566162109375,0.20831298828125,-0.02447509765625,0.7244873046875,-4.94921875,2.3828125,-0.26953125
1,1830286245,0.65643310546875,0.20843505859375,-0.0234375,0.72467041015625,-5.125,2.38671875,-0.375
1,1830290288,0.656005859375,0.20880126953125,-0.02264404296875,0.7249755859375,-5.125,2.38671875,-0.375
1,1830298245,0.65557861328125,0.20867919921875,-0.021728515625,0.72540283203125,-5.25390625,2.2265625,-0.3984375
1,1830301289,0.65496826171875,0.208740234375,-0.02117919921875,0.7259521484375,-5.25390625,2.2265625,-0.3984375
1,1830305289,0.65399169921875,0.2086181640625,-0.0205078125,0.72686767578125,-5.25390625,2.2265625,-0.3984375
1,1830309289,0.65289306640625,0.2083740234375,-0.01971435546875,0.72796630859375,-5.25390625,2.2265625,-0.3984375
1,1830315245,0.65191650390625,0.2076416015625,-0.0184326171875,0.72906494140625,-5.53125,1.8125,-0.58203125
1,1830319289,0.650390625,0.207275390625,-0.017333984375,0.7305908203125,-5.53125,1.8125,-0.58203125
1,1830326245,0.64910888671875,0.20654296875,-0.015869140625,0.73193359375,-5.62890625,1.44140625,-0.58203125
1,1830330289,0.64752197265625,0.20623779296875,-0.01470947265625,0.73345947265625,-5.62890625,1.44140625,-0.58203125
1,1830338245,0.64605712890625,0.2056884765625,-0.01312255859375,0.73492431640625,-5.62890625,1.14453125,-0.421875
1,1830341287,0.64483642578125,0.20562744140625,-0.01226806640625,0.73602294921875,-5.62890625,1.14453125,-0.421875
1,1830345289,0.6434326171875,0.20574951171875,-0.01123046875,0.73724365234375,-5.62890625,1.14453125,-0.421875
1,1830349289,0.642333984375,0.20599365234375,-0.010498046875,0.7381591796875,-5.62890625,1.14453125,-0.421875
1,1830355245,0.6417236328125,0.20599365234375,-0.0096435546875,0.73870849609375,-5.453125,1.203125,-0.21484375
1,1830363289,0.64105224609375,0.20660400390625,-0.00933837890625,0.7391357421875,-5.453125,1.203125,-0.21484375
1,1830366289,0.64068603515625,0.2071533203125,-0.00933837890625,0.7392578125,-5.453125,1.203125,-0.21484375
1,1830370289,0.64044189453125,0.2078857421875,-0.009521484375,0.7392578125,-5.453125,1.203125,-0.21484375
1,1830380245,0.6405029296875,0.208251953125,-0.00946044921875,0.7391357421875,-5.48828125,1.46875,-0.50390625
1,1830384290,0.640380859375,0.2095947265625,-0.0103759765625,0.73883056640625,-5.48828125,1.46875,-0.50390625
1,1830388292,0.6402587890625,0.2100830078125,-0.0107421875,0.73883056640625,-5.48828125,1.46875,-0.50390625
1,1830398245,0.64007568359375,0.21026611328125,-0.01068115234375,0.7388916015625,-5.734375,1.35546875,-0.703125
1,1830401291,0.63970947265625,0.2105712890625,-0.0108642578125,0.7391357421875,-5.734375,1.35546875,-0.703125
1,1830405291,0.6390380859375,0.2108154296875,-0.01080322265625,0.7396240234375,-5.734375,1.35546875,-0.703125
1,1830413245,0.63836669921875,0.2105712890625,-0.01019287109375,0.7403564453125,-6.04296875,0.796875,-0.625
1,1830416291,0.63751220703125,0.21044921875,-0.009765625,0.74102783203125,-6.04296875,0.796875,-0.625
1,1830420291,0.63629150390625,0.21014404296875,-0.00897216796875,0.7421875,-6.04296875,0.796875,-0.625
1,1830424338,0.63507080078125,0.2098388671875,-0.008056640625,0.74334716796875,-6.04296875,0.796875,-0.625
1,1830430245,0.6341552734375,0.20928955078125,-0.0069580078125,0.74432373046875,-6.1640625,0.49609375,-0.6875
1,1830434293,0.6326904296875,0.208984375,-0.005859375,0.74560546875,-6.1640625,0.49609375,-0.6875
1,1830441245,0.6317138671875,0.2086181640625,-0.0047607421875,0.74658203125,-6.30078125,0.51953125,-0.98828125
1,1830445291,0.63043212890625,0.20855712890625,-0.00390625,0.7476806640625,-6.30078125,0.51953125,-0.98828125
1,1830453338,0.62945556640625,0.20855712890625,-0.00299072265625,0.74853515625,-6.26953125,0.6796875,-0.94140625
1,1830456291,0.62860107421875,0.20892333984375,-0.002685546875,0.7491455078125,-6.26953125,0.6796875,-0.94140625
1,1830459291,0.6278076171875,0.2095947265625,-0.0025634765625,0.7496337890625,-6.26953125,0.6796875,-0.94140625
1,1830464291,0.6270751953125,0.21038818359375,-0.00262451171875,0.75,-6.26953125,0.6796875,-0.94140625
1,1830470245,0.6265869140625,0.211181640625,-0.00262451171875,0.75018310546875,-5.953125,0.8359375,-0.5625
1,1830474291,0.6259765625,0.21246337890625,-0.0030517578125,0.75030517578125,-5.953125,0.8359375,-0.5625
1,1830481245,0.625732421875,0.2132568359375,-0.00311279296875,0.75030517578125,-5.89453125,0.9765625,-0.51953125
1,1830485293,0.6253662109375,0.214599609375,-0.00360107421875,0.750244140625,-5.89453125,0.9765625,-0.51953125
1,1830493245,0.6251220703125,0.2156982421875,-0.00372314453125,0.7501220703125,-5.765625,1.05859375,-0.6171875
1,1830496291,0.6248779296875,0.2166748046875,-0.0040283203125,0.75006103515625,-5.765625,1.05859375,-0.6171875
1,1830499291,0.6246337890625,0.21783447265625,-0.0042724609375,0.7498779296875,-5.765625,1.05859375,-0.6171875
1,1830503291,0.6243896484375,0.21905517578125,-0.00439453125,0.74981689453125,-5.765625,1.05859375,-0.6171875
1,1830510245,0.62408447265625,0.22015380859375,-0.00421142578125,0.74969482421875,-5.6875,0.97265625,-0.6640625
1,1830517245,0.62384033203125,0.2210693359375,-0.00390625,0.7496337890625,-5.83984375,0.63671875,-0.53125
1,1830520291,0.62353515625,0.22186279296875,-0.00372314453125,0.7496337890625,-5.83984375,0.63671875,-0.53125
1,1830524291,0.62310791015625,0.22283935546875,-0.00335693359375,0.74969482421875,-5.83984375,0.63671875,-0.53125
1,1830531245,0.62286376953125,0.2232666015625,-0.0028076171875,0.74981689453125,-6.109375,0.23828125,-0.890625
1,1830535291,0.6224365234375,0.22393798828125,-0.0023193359375,0.74993896484375,-6.109375,0.23828125,-0.890625
1,1830539291,0.6220703125,0.22442626953125,-0.00177001953125,0.7501220703125,-6.109375,0.23828125,-0.890625
1,1830545247,0.621826171875,0.224609375,-0.001220703125,0.750244140625,-6.140625,0.19140625,-1.06640625
1,1830553245,0.62158203125,0.22479248046875,-0.00048828125,0.7503662109375,-6.19921875,0.44140625,-1.17578125
1,1830556292,0.62139892578125,0.22509765625,-0.0001220703125,0.75048828125,-6.19921875,0.44140625,-1.17578125
1,1830559289,0.62127685546875,0.22528076171875,0.0001220703125,0.75048828125,-6.19921875,0.44140625,-1.17578125
1,1830563289,0.62127685546875,0.2254638671875,0.00042724609375,0.75042724609375,-6.19921875,0.44140625,-1.17578125
1,1830569245,0.62139892578125,0.2255859375,0.00091552734375,0.75030517578125,-6.125,0.5390625,-0.8515625
1,1830576245,0.62158203125,0.22564697265625,0.00140380859375,0.7501220703125,-6.0703125,0.6796875,-0.1953125
1,1830580289,0.621826171875,0.2259521484375,0.00177001953125,0.7498779296875,-6.0703125,0.6796875,-0.1953125
1,1830584289,0.6219482421875,0.22625732421875,0.0020751953125,0.7496337890625,-6.0703125,0.6796875,-0.1953125
1,1830591245,0.6221923828125,0.2265625,0.0025634765625,0.74932861328125,-5.9609375,0.9921875,0.05078125
1,1830595288,0.62237548828125,0.2271728515625,0.00286865234375,0.7490234375,-5.9609375,0.9921875,0.05078125
1,1830598289,0.62249755859375,0.22802734375,0.00311279296875,0.7486572265625,-5.9609375,0.9921875,0.05078125
1,1830604245,0.62261962890625,0.22869873046875,0.00341796875,0.74835205078125,-5.83203125,1.14453125,0.2578125
1,1830612245,0.62261962890625,0.229736328125,0.00360107421875,0.748046875,-5.83203125,1.234375,0.265625
1,1830615289,0.6224365234375,0.23101806640625,0.0035400390625,0.747802734375,-5.83203125,1.234375,0.265625
1,1830618289,0.62213134765625,0.23236083984375,0.00347900390625,0.74761962890625,-5.83203125,1.234375,0.265625
1,1830625245,0.62164306640625,0.23370361328125,0.0035400390625,0.74761962890625,-5.81640625,1.12890625,0.11328125
1,1830629289,0.620849609375,0.2353515625,0.00341796875,0.74774169921875,-5.81640625,1.12890625,0.11328125
1,1830636245,0.62017822265625,0.236328125,0.00360107421875,0.74798583984375,-5.83203125,1.06640625,-0.18359375
1,1830640289,0.6190185546875,0.23773193359375,0.003662109375,0.74853515625,-5.83203125,1.06640625,-0.18359375
1,1830644289,0.61810302734375,0.23858642578125,0.00384521484375,0.7490234375,-5.83203125,1.06640625,-0.18359375
1,1830652248,0.61700439453125,0.23919677734375,0.00457763671875,0.74969482421875,-6.0,0.6640625,-0.421875
1,1830655289,0.61578369140625,0.23974609375,0.005126953125,0.75054931640625,-6.0,0.6640625,-0.421875
1,1830658292,0.61456298828125,0.24005126953125,0.00579833984375,0.75140380859375,-6.0,0.6640625,-0.421875
1,1830665245,0.61346435546875,0.2398681640625,0.00714111328125,0.75238037109375,-6.20703125,0.25,-0.3515625
1,1830669289,0.6124267578125,0.23974609375,0.00823974609375,0.7532958984375,-6.20703125,0.25,-0.3515625
1,1830676245,0.61151123046875,0.2391357421875,0.0098876953125,0.754150390625,-6.26171875,-0.1171875,-0.12109375
1,1830683245,0.61065673828125,0.23834228515625,0.01190185546875,0.755126953125,-6.23828125,-0.2109375,-0.11328125
1,1830687291,0.610107421875,0.23779296875,0.0130615234375,0.75567626953125,-6.23828125,-0.2109375,-0.11328125
1,1830690291,0.609619140625,0.2371826171875,0.0145263671875,0.7562255859375,-6.23828125,-0.2109375,-0.11328125
1,1830694291,0.609375,0.23651123046875,0.01593017578125,0.75665283203125,-6.23828125,-0.2109375,-0.11328125
1,1830698291,0.6092529296875,0.23577880859375,0.0172119140625,0.75689697265625,-6.23828125,-0.2109375,-0.11328125
1,1830704245,0.609375,0.2349853515625,0.01861572265625,0.75701904296875,-6.1171875,-0.2890625,-0.21484375
1,1830712245,0.609619140625,0.2342529296875,0.0198974609375,0.75701904296875,-5.93359375,-0.06640625,-0.3203125
1,1830715291,0.60986328125,0.23382568359375,0.0206298828125,0.75689697265625,-5.93359375,-0.06640625,-0.3203125
1,1830718291,0.61016845703125,0.23345947265625,0.021240234375,0.75677490234375,-5.93359375,-0.06640625,-0.3203125
1,1830725252,0.61053466796875,0.23291015625,0.02203369140625,0.75665283203125,-5.703125,-0.01171875,-0.3125
1,1830732245,0.61083984375,0.232421875,0.0228271484375,0.75653076171875,-5.65625,-0.03515625,-0.4296875
1,1830735289,0.61102294921875,0.2320556640625,0.0233154296875,0.7564697265625,-5.65625,-0.03515625,-0.4296875
1,1830739289,0.61102294921875,0.231689453125,0.0238037109375,0.75653076171875,-5.65625,-0.03515625,-0.4296875
1,1830743289,0.6109619140625,0.23126220703125,0.0244140625,0.7567138671875,-5.65625,-0.03515625,-0.4296875
